workerid,proliferate.condition,condition,form,lbr_after,lbr_before,lexeme,name,region,response_correct,rt,trial_id,trial_no,word_idx,subject_information.age,subject_information.asses,subject_information.comments,subject_information.education,subject_information.enjoyment,subject_information.gender,subject_information.gender_q1,subject_information.gender_q10,subject_information.gender_q11,subject_information.gender_q12,subject_information.gender_q13,subject_information.gender_q2,subject_information.gender_q3,subject_information.gender_q4,subject_information.gender_q5,subject_information.gender_q6,subject_information.gender_q7,subject_information.gender_q8,subject_information.gender_q9,subject_information.language,subject_information.party_alignment,subject_information.price,system.Browser,system.OS,system.screenH,system.screenW,time_in_minutes,error
119,all,neutral_female,Brittany,0,0,performer,Brittany,none,1,430,example,0,0,23,Yes,,2,2,Female,100,16,0,0,0,100,100,100,100,49,0,0,23,Engligh,5,1,Chrome,Mac,800,1280,3.5265,
119,all,neutral_female,is,0,0,performer,Brittany,none,1,413,example,0,1,23,Yes,,2,2,Female,100,16,0,0,0,100,100,100,100,49,0,0,23,Engligh,5,1,Chrome,Mac,800,1280,3.5265,
119,all,neutral_female,a,0,0,performer,Brittany,none,1,294,example,0,2,23,Yes,,2,2,Female,100,16,0,0,0,100,100,100,100,49,0,0,23,Engligh,5,1,Chrome,Mac,800,1280,3.5265,
119,all,neutral_female,performer,0,0,performer,Brittany,critical,1,358,example,0,3,23,Yes,,2,2,Female,100,16,0,0,0,100,100,100,100,49,0,0,23,Engligh,5,1,Chrome,Mac,800,1280,3.5265,
119,all,neutral_female,from,0,0,performer,Brittany,none,1,349,example,0,4,23,Yes,,2,2,Female,100,16,0,0,0,100,100,100,100,49,0,0,23,Engligh,5,1,Chrome,Mac,800,1280,3.5265,
119,all,neutral_female,South Korea.,0,0,performer,Brittany,none,1,298,example,0,5,23,Yes,,2,2,Female,100,16,0,0,0,100,100,100,100,49,0,0,23,Engligh,5,1,Chrome,Mac,800,1280,3.5265,
119,all,neutral_female,She,0,0,performer,Brittany,none,1,384,example,0,6,23,Yes,,2,2,Female,100,16,0,0,0,100,100,100,100,49,0,0,23,Engligh,5,1,Chrome,Mac,800,1280,3.5265,
119,all,neutral_female,likes,0,0,performer,Brittany,none,1,349,example,0,7,23,Yes,,2,2,Female,100,16,0,0,0,100,100,100,100,49,0,0,23,Engligh,5,1,Chrome,Mac,800,1280,3.5265,
119,all,neutral_female,cycling.,0,0,performer,Brittany,none,1,589,example,0,8,23,Yes,,2,2,Female,100,16,0,0,0,100,100,100,100,49,0,0,23,Engligh,5,1,Chrome,Mac,800,1280,3.5265,
119,all,neutral_male,Andrew,0,0,firefighter,Andrew,none,1,381,_neutral_male,1,0,23,Yes,,2,2,Female,100,16,0,0,0,100,100,100,100,49,0,0,23,Engligh,5,1,Chrome,Mac,800,1280,3.5265,
119,all,neutral_male,is,0,0,firefighter,Andrew,none,1,283,_neutral_male,1,1,23,Yes,,2,2,Female,100,16,0,0,0,100,100,100,100,49,0,0,23,Engligh,5,1,Chrome,Mac,800,1280,3.5265,
119,all,neutral_male,a,0,0,firefighter,Andrew,none,1,266,_neutral_male,1,2,23,Yes,,2,2,Female,100,16,0,0,0,100,100,100,100,49,0,0,23,Engligh,5,1,Chrome,Mac,800,1280,3.5265,
119,all,neutral_male,firefighter,0,0,firefighter,Andrew,critical,1,378,_neutral_male,1,3,23,Yes,,2,2,Female,100,16,0,0,0,100,100,100,100,49,0,0,23,Engligh,5,1,Chrome,Mac,800,1280,3.5265,
119,all,neutral_male,from,0,0,firefighter,Andrew,none,1,332,_neutral_male,1,4,23,Yes,,2,2,Female,100,16,0,0,0,100,100,100,100,49,0,0,23,Engligh,5,1,Chrome,Mac,800,1280,3.5265,
119,all,neutral_male,North Carolina.,0,0,firefighter,Andrew,none,1,514,_neutral_male,1,5,23,Yes,,2,2,Female,100,16,0,0,0,100,100,100,100,49,0,0,23,Engligh,5,1,Chrome,Mac,800,1280,3.5265,
119,all,neutral_male,He,0,0,firefighter,Andrew,none,1,406,_neutral_male,1,6,23,Yes,,2,2,Female,100,16,0,0,0,100,100,100,100,49,0,0,23,Engligh,5,1,Chrome,Mac,800,1280,3.5265,
119,all,neutral_male,likes,0,0,firefighter,Andrew,none,1,327,_neutral_male,1,7,23,Yes,,2,2,Female,100,16,0,0,0,100,100,100,100,49,0,0,23,Engligh,5,1,Chrome,Mac,800,1280,3.5265,
119,all,neutral_male,cooking.,0,0,firefighter,Andrew,none,1,498,_neutral_male,1,8,23,Yes,,2,2,Female,100,16,0,0,0,100,100,100,100,49,0,0,23,Engligh,5,1,Chrome,Mac,800,1280,3.5265,
119,all,congruent_female,Rachel,0,0,salesperson,Rachel,none,1,341,salesperson_congruent_female,2,0,23,Yes,,2,2,Female,100,16,0,0,0,100,100,100,100,49,0,0,23,Engligh,5,1,Chrome,Mac,800,1280,3.5265,
119,all,congruent_female,is,0,0,salesperson,Rachel,none,1,311,salesperson_congruent_female,2,1,23,Yes,,2,2,Female,100,16,0,0,0,100,100,100,100,49,0,0,23,Engligh,5,1,Chrome,Mac,800,1280,3.5265,
119,all,congruent_female,a,0,0,salesperson,Rachel,none,1,321,salesperson_congruent_female,2,2,23,Yes,,2,2,Female,100,16,0,0,0,100,100,100,100,49,0,0,23,Engligh,5,1,Chrome,Mac,800,1280,3.5265,
119,all,congruent_female,saleswoman,0,0,salesperson,Rachel,critical,1,390,salesperson_congruent_female,2,3,23,Yes,,2,2,Female,100,16,0,0,0,100,100,100,100,49,0,0,23,Engligh,5,1,Chrome,Mac,800,1280,3.5265,
119,all,congruent_female,from,0,0,salesperson,Rachel,none,1,358,salesperson_congruent_female,2,4,23,Yes,,2,2,Female,100,16,0,0,0,100,100,100,100,49,0,0,23,Engligh,5,1,Chrome,Mac,800,1280,3.5265,
119,all,congruent_female,Delaware.,0,0,salesperson,Rachel,none,1,511,salesperson_congruent_female,2,5,23,Yes,,2,2,Female,100,16,0,0,0,100,100,100,100,49,0,0,23,Engligh,5,1,Chrome,Mac,800,1280,3.5265,
119,all,congruent_female,She,0,0,salesperson,Rachel,none,1,353,salesperson_congruent_female,2,6,23,Yes,,2,2,Female,100,16,0,0,0,100,100,100,100,49,0,0,23,Engligh,5,1,Chrome,Mac,800,1280,3.5265,
119,all,congruent_female,likes,0,0,salesperson,Rachel,none,1,410,salesperson_congruent_female,2,7,23,Yes,,2,2,Female,100,16,0,0,0,100,100,100,100,49,0,0,23,Engligh,5,1,Chrome,Mac,800,1280,3.5265,
119,all,congruent_female,cooking.,0,0,salesperson,Rachel,none,1,692,salesperson_congruent_female,2,8,23,Yes,,2,2,Female,100,16,0,0,0,100,100,100,100,49,0,0,23,Engligh,5,1,Chrome,Mac,800,1280,3.5265,
119,all,congruent_male,Nicholas,0,0,actor,Nicholas,none,1,531,actor_congruent_male,3,0,23,Yes,,2,2,Female,100,16,0,0,0,100,100,100,100,49,0,0,23,Engligh,5,1,Chrome,Mac,800,1280,3.5265,
119,all,congruent_male,is,0,0,actor,Nicholas,none,1,377,actor_congruent_male,3,1,23,Yes,,2,2,Female,100,16,0,0,0,100,100,100,100,49,0,0,23,Engligh,5,1,Chrome,Mac,800,1280,3.5265,
119,all,congruent_male,an,0,0,actor,Nicholas,none,1,376,actor_congruent_male,3,2,23,Yes,,2,2,Female,100,16,0,0,0,100,100,100,100,49,0,0,23,Engligh,5,1,Chrome,Mac,800,1280,3.5265,
119,all,congruent_male,actor,0,0,actor,Nicholas,critical,1,547,actor_congruent_male,3,3,23,Yes,,2,2,Female,100,16,0,0,0,100,100,100,100,49,0,0,23,Engligh,5,1,Chrome,Mac,800,1280,3.5265,
119,all,congruent_male,from,0,0,actor,Nicholas,none,1,339,actor_congruent_male,3,4,23,Yes,,2,2,Female,100,16,0,0,0,100,100,100,100,49,0,0,23,Engligh,5,1,Chrome,Mac,800,1280,3.5265,
119,all,congruent_male,New Hampshire.,0,0,actor,Nicholas,none,1,502,actor_congruent_male,3,5,23,Yes,,2,2,Female,100,16,0,0,0,100,100,100,100,49,0,0,23,Engligh,5,1,Chrome,Mac,800,1280,3.5265,
119,all,congruent_male,He,0,0,actor,Nicholas,none,1,337,actor_congruent_male,3,6,23,Yes,,2,2,Female,100,16,0,0,0,100,100,100,100,49,0,0,23,Engligh,5,1,Chrome,Mac,800,1280,3.5265,
119,all,congruent_male,likes,0,0,actor,Nicholas,none,1,352,actor_congruent_male,3,7,23,Yes,,2,2,Female,100,16,0,0,0,100,100,100,100,49,0,0,23,Engligh,5,1,Chrome,Mac,800,1280,3.5265,
119,all,congruent_male,reading.,0,0,actor,Nicholas,none,1,602,actor_congruent_male,3,8,23,Yes,,2,2,Female,100,16,0,0,0,100,100,100,100,49,0,0,23,Engligh,5,1,Chrome,Mac,800,1280,3.5265,
119,all,congruent_male,Jacob,0,0,police officer,Jacob,none,1,560,police officer_congruent_male,4,0,23,Yes,,2,2,Female,100,16,0,0,0,100,100,100,100,49,0,0,23,Engligh,5,1,Chrome,Mac,800,1280,3.5265,
119,all,congruent_male,is,0,0,police officer,Jacob,none,1,451,police officer_congruent_male,4,1,23,Yes,,2,2,Female,100,16,0,0,0,100,100,100,100,49,0,0,23,Engligh,5,1,Chrome,Mac,800,1280,3.5265,
119,all,congruent_male,a,0,0,police officer,Jacob,none,1,334,police officer_congruent_male,4,2,23,Yes,,2,2,Female,100,16,0,0,0,100,100,100,100,49,0,0,23,Engligh,5,1,Chrome,Mac,800,1280,3.5265,
119,all,congruent_male,policeman,0,0,police officer,Jacob,critical,1,579,police officer_congruent_male,4,3,23,Yes,,2,2,Female,100,16,0,0,0,100,100,100,100,49,0,0,23,Engligh,5,1,Chrome,Mac,800,1280,3.5265,
119,all,congruent_male,from,0,0,police officer,Jacob,none,1,331,police officer_congruent_male,4,4,23,Yes,,2,2,Female,100,16,0,0,0,100,100,100,100,49,0,0,23,Engligh,5,1,Chrome,Mac,800,1280,3.5265,
119,all,congruent_male,Nebraska.,0,0,police officer,Jacob,none,1,1417,police officer_congruent_male,4,5,23,Yes,,2,2,Female,100,16,0,0,0,100,100,100,100,49,0,0,23,Engligh,5,1,Chrome,Mac,800,1280,3.5265,
119,all,congruent_male,He,0,0,police officer,Jacob,none,1,399,police officer_congruent_male,4,6,23,Yes,,2,2,Female,100,16,0,0,0,100,100,100,100,49,0,0,23,Engligh,5,1,Chrome,Mac,800,1280,3.5265,
119,all,congruent_male,likes,0,0,police officer,Jacob,none,1,351,police officer_congruent_male,4,7,23,Yes,,2,2,Female,100,16,0,0,0,100,100,100,100,49,0,0,23,Engligh,5,1,Chrome,Mac,800,1280,3.5265,
119,all,congruent_male,dancing.,0,0,police officer,Jacob,none,1,383,police officer_congruent_male,4,8,23,Yes,,2,2,Female,100,16,0,0,0,100,100,100,100,49,0,0,23,Engligh,5,1,Chrome,Mac,800,1280,3.5265,
119,all,congruent_female,Lauren,0,0,camera operator,Lauren,none,1,553,camera operator_congruent_female,5,0,23,Yes,,2,2,Female,100,16,0,0,0,100,100,100,100,49,0,0,23,Engligh,5,1,Chrome,Mac,800,1280,3.5265,
119,all,congruent_female,is,0,0,camera operator,Lauren,none,1,396,camera operator_congruent_female,5,1,23,Yes,,2,2,Female,100,16,0,0,0,100,100,100,100,49,0,0,23,Engligh,5,1,Chrome,Mac,800,1280,3.5265,
119,all,congruent_female,a,0,0,camera operator,Lauren,none,1,354,camera operator_congruent_female,5,2,23,Yes,,2,2,Female,100,16,0,0,0,100,100,100,100,49,0,0,23,Engligh,5,1,Chrome,Mac,800,1280,3.5265,
119,all,congruent_female,camerawoman,0,0,camera operator,Lauren,critical,1,591,camera operator_congruent_female,5,3,23,Yes,,2,2,Female,100,16,0,0,0,100,100,100,100,49,0,0,23,Engligh,5,1,Chrome,Mac,800,1280,3.5265,
119,all,congruent_female,from,0,0,camera operator,Lauren,none,1,433,camera operator_congruent_female,5,4,23,Yes,,2,2,Female,100,16,0,0,0,100,100,100,100,49,0,0,23,Engligh,5,1,Chrome,Mac,800,1280,3.5265,
119,all,congruent_female,North Dakota.,0,0,camera operator,Lauren,none,1,808,camera operator_congruent_female,5,5,23,Yes,,2,2,Female,100,16,0,0,0,100,100,100,100,49,0,0,23,Engligh,5,1,Chrome,Mac,800,1280,3.5265,
119,all,congruent_female,She,0,0,camera operator,Lauren,none,1,406,camera operator_congruent_female,5,6,23,Yes,,2,2,Female,100,16,0,0,0,100,100,100,100,49,0,0,23,Engligh,5,1,Chrome,Mac,800,1280,3.5265,
119,all,congruent_female,likes,0,0,camera operator,Lauren,none,1,394,camera operator_congruent_female,5,7,23,Yes,,2,2,Female,100,16,0,0,0,100,100,100,100,49,0,0,23,Engligh,5,1,Chrome,Mac,800,1280,3.5265,
119,all,congruent_female,walking.,0,0,camera operator,Lauren,none,1,569,camera operator_congruent_female,5,8,23,Yes,,2,2,Female,100,16,0,0,0,100,100,100,100,49,0,0,23,Engligh,5,1,Chrome,Mac,800,1280,3.5265,
119,all,congruent_female,Madison,0,0,heir,Madison,none,1,567,heir_congruent_female,6,0,23,Yes,,2,2,Female,100,16,0,0,0,100,100,100,100,49,0,0,23,Engligh,5,1,Chrome,Mac,800,1280,3.5265,
119,all,congruent_female,is,0,0,heir,Madison,none,1,374,heir_congruent_female,6,1,23,Yes,,2,2,Female,100,16,0,0,0,100,100,100,100,49,0,0,23,Engligh,5,1,Chrome,Mac,800,1280,3.5265,
119,all,congruent_female,an,0,0,heir,Madison,none,1,347,heir_congruent_female,6,2,23,Yes,,2,2,Female,100,16,0,0,0,100,100,100,100,49,0,0,23,Engligh,5,1,Chrome,Mac,800,1280,3.5265,
119,all,congruent_female,heiress,0,0,heir,Madison,critical,1,627,heir_congruent_female,6,3,23,Yes,,2,2,Female,100,16,0,0,0,100,100,100,100,49,0,0,23,Engligh,5,1,Chrome,Mac,800,1280,3.5265,
119,all,congruent_female,from,0,0,heir,Madison,none,1,376,heir_congruent_female,6,4,23,Yes,,2,2,Female,100,16,0,0,0,100,100,100,100,49,0,0,23,Engligh,5,1,Chrome,Mac,800,1280,3.5265,
119,all,congruent_female,Wisconsin.,0,0,heir,Madison,none,1,662,heir_congruent_female,6,5,23,Yes,,2,2,Female,100,16,0,0,0,100,100,100,100,49,0,0,23,Engligh,5,1,Chrome,Mac,800,1280,3.5265,
119,all,congruent_female,She,0,0,heir,Madison,none,1,316,heir_congruent_female,6,6,23,Yes,,2,2,Female,100,16,0,0,0,100,100,100,100,49,0,0,23,Engligh,5,1,Chrome,Mac,800,1280,3.5265,
119,all,congruent_female,likes,0,0,heir,Madison,none,1,368,heir_congruent_female,6,7,23,Yes,,2,2,Female,100,16,0,0,0,100,100,100,100,49,0,0,23,Engligh,5,1,Chrome,Mac,800,1280,3.5265,
119,all,congruent_female,running.,0,0,heir,Madison,none,1,454,heir_congruent_female,6,8,23,Yes,,2,2,Female,100,16,0,0,0,100,100,100,100,49,0,0,23,Engligh,5,1,Chrome,Mac,800,1280,3.5265,
119,all,neutral_male,William,0,0,meteorologist,William,none,1,404,_neutral_male,7,0,23,Yes,,2,2,Female,100,16,0,0,0,100,100,100,100,49,0,0,23,Engligh,5,1,Chrome,Mac,800,1280,3.5265,
119,all,neutral_male,is,0,0,meteorologist,William,none,1,341,_neutral_male,7,1,23,Yes,,2,2,Female,100,16,0,0,0,100,100,100,100,49,0,0,23,Engligh,5,1,Chrome,Mac,800,1280,3.5265,
119,all,neutral_male,a,0,0,meteorologist,William,none,1,464,_neutral_male,7,2,23,Yes,,2,2,Female,100,16,0,0,0,100,100,100,100,49,0,0,23,Engligh,5,1,Chrome,Mac,800,1280,3.5265,
119,all,neutral_male,meteorologist,0,0,meteorologist,William,critical,1,945,_neutral_male,7,3,23,Yes,,2,2,Female,100,16,0,0,0,100,100,100,100,49,0,0,23,Engligh,5,1,Chrome,Mac,800,1280,3.5265,
119,all,neutral_male,from,0,0,meteorologist,William,none,1,283,_neutral_male,7,4,23,Yes,,2,2,Female,100,16,0,0,0,100,100,100,100,49,0,0,23,Engligh,5,1,Chrome,Mac,800,1280,3.5265,
119,all,neutral_male,Kansas.,0,0,meteorologist,William,none,1,728,_neutral_male,7,5,23,Yes,,2,2,Female,100,16,0,0,0,100,100,100,100,49,0,0,23,Engligh,5,1,Chrome,Mac,800,1280,3.5265,
119,all,neutral_male,He,0,0,meteorologist,William,none,1,329,_neutral_male,7,6,23,Yes,,2,2,Female,100,16,0,0,0,100,100,100,100,49,0,0,23,Engligh,5,1,Chrome,Mac,800,1280,3.5265,
119,all,neutral_male,likes,0,0,meteorologist,William,none,1,303,_neutral_male,7,7,23,Yes,,2,2,Female,100,16,0,0,0,100,100,100,100,49,0,0,23,Engligh,5,1,Chrome,Mac,800,1280,3.5265,
119,all,neutral_male,cycling.,0,0,meteorologist,William,none,1,739,_neutral_male,7,8,23,Yes,,2,2,Female,100,16,0,0,0,100,100,100,100,49,0,0,23,Engligh,5,1,Chrome,Mac,800,1280,3.5265,
119,all,neutral_female,Hannah,0,0,businessperson,Hannah,none,1,336,businessperson_neutral_female,8,0,23,Yes,,2,2,Female,100,16,0,0,0,100,100,100,100,49,0,0,23,Engligh,5,1,Chrome,Mac,800,1280,3.5265,
119,all,neutral_female,is,0,0,businessperson,Hannah,none,1,345,businessperson_neutral_female,8,1,23,Yes,,2,2,Female,100,16,0,0,0,100,100,100,100,49,0,0,23,Engligh,5,1,Chrome,Mac,800,1280,3.5265,
119,all,neutral_female,a,0,0,businessperson,Hannah,none,1,368,businessperson_neutral_female,8,2,23,Yes,,2,2,Female,100,16,0,0,0,100,100,100,100,49,0,0,23,Engligh,5,1,Chrome,Mac,800,1280,3.5265,
119,all,neutral_female,businessperson,0,0,businessperson,Hannah,critical,1,594,businessperson_neutral_female,8,3,23,Yes,,2,2,Female,100,16,0,0,0,100,100,100,100,49,0,0,23,Engligh,5,1,Chrome,Mac,800,1280,3.5265,
119,all,neutral_female,from,0,0,businessperson,Hannah,none,1,283,businessperson_neutral_female,8,4,23,Yes,,2,2,Female,100,16,0,0,0,100,100,100,100,49,0,0,23,Engligh,5,1,Chrome,Mac,800,1280,3.5265,
119,all,neutral_female,South Dakota.,0,0,businessperson,Hannah,none,1,795,businessperson_neutral_female,8,5,23,Yes,,2,2,Female,100,16,0,0,0,100,100,100,100,49,0,0,23,Engligh,5,1,Chrome,Mac,800,1280,3.5265,
119,all,neutral_female,She,0,0,businessperson,Hannah,none,1,330,businessperson_neutral_female,8,6,23,Yes,,2,2,Female,100,16,0,0,0,100,100,100,100,49,0,0,23,Engligh,5,1,Chrome,Mac,800,1280,3.5265,
119,all,neutral_female,likes,0,0,businessperson,Hannah,none,1,335,businessperson_neutral_female,8,7,23,Yes,,2,2,Female,100,16,0,0,0,100,100,100,100,49,0,0,23,Engligh,5,1,Chrome,Mac,800,1280,3.5265,
119,all,neutral_female,reading.,0,0,businessperson,Hannah,none,1,447,businessperson_neutral_female,8,8,23,Yes,,2,2,Female,100,16,0,0,0,100,100,100,100,49,0,0,23,Engligh,5,1,Chrome,Mac,800,1280,3.5265,
119,all,neutral_female,Kalya,0,0,congressperson,Kalya,none,1,291,congressperson_neutral_female,9,0,23,Yes,,2,2,Female,100,16,0,0,0,100,100,100,100,49,0,0,23,Engligh,5,1,Chrome,Mac,800,1280,3.5265,
119,all,neutral_female,is,0,0,congressperson,Kalya,none,1,314,congressperson_neutral_female,9,1,23,Yes,,2,2,Female,100,16,0,0,0,100,100,100,100,49,0,0,23,Engligh,5,1,Chrome,Mac,800,1280,3.5265,
119,all,neutral_female,a,0,0,congressperson,Kalya,none,1,460,congressperson_neutral_female,9,2,23,Yes,,2,2,Female,100,16,0,0,0,100,100,100,100,49,0,0,23,Engligh,5,1,Chrome,Mac,800,1280,3.5265,
119,all,neutral_female,congressperson,0,0,congressperson,Kalya,critical,1,1398,congressperson_neutral_female,9,3,23,Yes,,2,2,Female,100,16,0,0,0,100,100,100,100,49,0,0,23,Engligh,5,1,Chrome,Mac,800,1280,3.5265,
119,all,neutral_female,from,0,0,congressperson,Kalya,none,1,321,congressperson_neutral_female,9,4,23,Yes,,2,2,Female,100,16,0,0,0,100,100,100,100,49,0,0,23,Engligh,5,1,Chrome,Mac,800,1280,3.5265,
119,all,neutral_female,Indiana.,0,0,congressperson,Kalya,none,1,937,congressperson_neutral_female,9,5,23,Yes,,2,2,Female,100,16,0,0,0,100,100,100,100,49,0,0,23,Engligh,5,1,Chrome,Mac,800,1280,3.5265,
119,all,neutral_female,She,0,0,congressperson,Kalya,none,1,370,congressperson_neutral_female,9,6,23,Yes,,2,2,Female,100,16,0,0,0,100,100,100,100,49,0,0,23,Engligh,5,1,Chrome,Mac,800,1280,3.5265,
119,all,neutral_female,likes,0,0,congressperson,Kalya,none,1,321,congressperson_neutral_female,9,7,23,Yes,,2,2,Female,100,16,0,0,0,100,100,100,100,49,0,0,23,Engligh,5,1,Chrome,Mac,800,1280,3.5265,
119,all,neutral_female,reading.,0,0,congressperson,Kalya,none,1,549,congressperson_neutral_female,9,8,23,Yes,,2,2,Female,100,16,0,0,0,100,100,100,100,49,0,0,23,Engligh,5,1,Chrome,Mac,800,1280,3.5265,
119,all,neutral_female,Jessica,0,0,host,Jessica,none,1,322,host_neutral_female,10,0,23,Yes,,2,2,Female,100,16,0,0,0,100,100,100,100,49,0,0,23,Engligh,5,1,Chrome,Mac,800,1280,3.5265,
119,all,neutral_female,is,0,0,host,Jessica,none,1,319,host_neutral_female,10,1,23,Yes,,2,2,Female,100,16,0,0,0,100,100,100,100,49,0,0,23,Engligh,5,1,Chrome,Mac,800,1280,3.5265,
119,all,neutral_female,a,0,0,host,Jessica,none,1,316,host_neutral_female,10,2,23,Yes,,2,2,Female,100,16,0,0,0,100,100,100,100,49,0,0,23,Engligh,5,1,Chrome,Mac,800,1280,3.5265,
119,all,neutral_female,host,0,0,host,Jessica,critical,1,432,host_neutral_female,10,3,23,Yes,,2,2,Female,100,16,0,0,0,100,100,100,100,49,0,0,23,Engligh,5,1,Chrome,Mac,800,1280,3.5265,
119,all,neutral_female,from,0,0,host,Jessica,none,1,392,host_neutral_female,10,4,23,Yes,,2,2,Female,100,16,0,0,0,100,100,100,100,49,0,0,23,Engligh,5,1,Chrome,Mac,800,1280,3.5265,
119,all,neutral_female,Wyoming.,0,0,host,Jessica,none,1,494,host_neutral_female,10,5,23,Yes,,2,2,Female,100,16,0,0,0,100,100,100,100,49,0,0,23,Engligh,5,1,Chrome,Mac,800,1280,3.5265,
119,all,neutral_female,She,0,0,host,Jessica,none,1,289,host_neutral_female,10,6,23,Yes,,2,2,Female,100,16,0,0,0,100,100,100,100,49,0,0,23,Engligh,5,1,Chrome,Mac,800,1280,3.5265,
119,all,neutral_female,likes,0,0,host,Jessica,none,1,330,host_neutral_female,10,7,23,Yes,,2,2,Female,100,16,0,0,0,100,100,100,100,49,0,0,23,Engligh,5,1,Chrome,Mac,800,1280,3.5265,
119,all,neutral_female,reading.,0,0,host,Jessica,none,1,430,host_neutral_female,10,8,23,Yes,,2,2,Female,100,16,0,0,0,100,100,100,100,49,0,0,23,Engligh,5,1,Chrome,Mac,800,1280,3.5265,
119,all,congruent_male,Christopher,0,0,villain,Christopher,none,1,425,villain_congruent_male,11,0,23,Yes,,2,2,Female,100,16,0,0,0,100,100,100,100,49,0,0,23,Engligh,5,1,Chrome,Mac,800,1280,3.5265,
119,all,congruent_male,is,0,0,villain,Christopher,none,1,326,villain_congruent_male,11,1,23,Yes,,2,2,Female,100,16,0,0,0,100,100,100,100,49,0,0,23,Engligh,5,1,Chrome,Mac,800,1280,3.5265,
119,all,congruent_male,a,0,0,villain,Christopher,none,1,331,villain_congruent_male,11,2,23,Yes,,2,2,Female,100,16,0,0,0,100,100,100,100,49,0,0,23,Engligh,5,1,Chrome,Mac,800,1280,3.5265,
119,all,congruent_male,villain,0,0,villain,Christopher,critical,1,544,villain_congruent_male,11,3,23,Yes,,2,2,Female,100,16,0,0,0,100,100,100,100,49,0,0,23,Engligh,5,1,Chrome,Mac,800,1280,3.5265,
119,all,congruent_male,from,0,0,villain,Christopher,none,1,355,villain_congruent_male,11,4,23,Yes,,2,2,Female,100,16,0,0,0,100,100,100,100,49,0,0,23,Engligh,5,1,Chrome,Mac,800,1280,3.5265,
119,all,congruent_male,Utah.,0,0,villain,Christopher,none,1,518,villain_congruent_male,11,5,23,Yes,,2,2,Female,100,16,0,0,0,100,100,100,100,49,0,0,23,Engligh,5,1,Chrome,Mac,800,1280,3.5265,
119,all,congruent_male,He,0,0,villain,Christopher,none,1,370,villain_congruent_male,11,6,23,Yes,,2,2,Female,100,16,0,0,0,100,100,100,100,49,0,0,23,Engligh,5,1,Chrome,Mac,800,1280,3.5265,
119,all,congruent_male,likes,0,0,villain,Christopher,none,1,332,villain_congruent_male,11,7,23,Yes,,2,2,Female,100,16,0,0,0,100,100,100,100,49,0,0,23,Engligh,5,1,Chrome,Mac,800,1280,3.5265,
119,all,congruent_male,writing.,0,0,villain,Christopher,none,1,454,villain_congruent_male,11,8,23,Yes,,2,2,Female,100,16,0,0,0,100,100,100,100,49,0,0,23,Engligh,5,1,Chrome,Mac,800,1280,3.5265,
119,all,congruent_male,John,0,0,stunt double,John,none,1,369,stunt double_congruent_male,12,0,23,Yes,,2,2,Female,100,16,0,0,0,100,100,100,100,49,0,0,23,Engligh,5,1,Chrome,Mac,800,1280,3.5265,
119,all,congruent_male,is,0,0,stunt double,John,none,1,361,stunt double_congruent_male,12,1,23,Yes,,2,2,Female,100,16,0,0,0,100,100,100,100,49,0,0,23,Engligh,5,1,Chrome,Mac,800,1280,3.5265,
119,all,congruent_male,a,0,0,stunt double,John,none,1,346,stunt double_congruent_male,12,2,23,Yes,,2,2,Female,100,16,0,0,0,100,100,100,100,49,0,0,23,Engligh,5,1,Chrome,Mac,800,1280,3.5265,
119,all,congruent_male,stuntman,0,0,stunt double,John,critical,1,400,stunt double_congruent_male,12,3,23,Yes,,2,2,Female,100,16,0,0,0,100,100,100,100,49,0,0,23,Engligh,5,1,Chrome,Mac,800,1280,3.5265,
119,all,congruent_male,from,0,0,stunt double,John,none,1,358,stunt double_congruent_male,12,4,23,Yes,,2,2,Female,100,16,0,0,0,100,100,100,100,49,0,0,23,Engligh,5,1,Chrome,Mac,800,1280,3.5265,
119,all,congruent_male,Illinois.,0,0,stunt double,John,none,1,477,stunt double_congruent_male,12,5,23,Yes,,2,2,Female,100,16,0,0,0,100,100,100,100,49,0,0,23,Engligh,5,1,Chrome,Mac,800,1280,3.5265,
119,all,congruent_male,He,0,0,stunt double,John,none,1,334,stunt double_congruent_male,12,6,23,Yes,,2,2,Female,100,16,0,0,0,100,100,100,100,49,0,0,23,Engligh,5,1,Chrome,Mac,800,1280,3.5265,
119,all,congruent_male,likes,0,0,stunt double,John,none,1,539,stunt double_congruent_male,12,7,23,Yes,,2,2,Female,100,16,0,0,0,100,100,100,100,49,0,0,23,Engligh,5,1,Chrome,Mac,800,1280,3.5265,
119,all,congruent_male,writing.,0,0,stunt double,John,none,1,498,stunt double_congruent_male,12,8,23,Yes,,2,2,Female,100,16,0,0,0,100,100,100,100,49,0,0,23,Engligh,5,1,Chrome,Mac,800,1280,3.5265,
119,all,congruent_male,Joseph,0,0,foreperson,Joseph,none,1,279,foreperson_congruent_male,13,0,23,Yes,,2,2,Female,100,16,0,0,0,100,100,100,100,49,0,0,23,Engligh,5,1,Chrome,Mac,800,1280,3.5265,
119,all,congruent_male,is,0,0,foreperson,Joseph,none,1,351,foreperson_congruent_male,13,1,23,Yes,,2,2,Female,100,16,0,0,0,100,100,100,100,49,0,0,23,Engligh,5,1,Chrome,Mac,800,1280,3.5265,
119,all,congruent_male,a,0,0,foreperson,Joseph,none,1,317,foreperson_congruent_male,13,2,23,Yes,,2,2,Female,100,16,0,0,0,100,100,100,100,49,0,0,23,Engligh,5,1,Chrome,Mac,800,1280,3.5265,
119,all,congruent_male,foreman,0,0,foreperson,Joseph,none,1,357,foreperson_congruent_male,13,3,23,Yes,,2,2,Female,100,16,0,0,0,100,100,100,100,49,0,0,23,Engligh,5,1,Chrome,Mac,800,1280,3.5265,
119,all,congruent_male,from,0,0,foreperson,Joseph,none,1,462,foreperson_congruent_male,13,4,23,Yes,,2,2,Female,100,16,0,0,0,100,100,100,100,49,0,0,23,Engligh,5,1,Chrome,Mac,800,1280,3.5265,
119,all,congruent_male,New York.,0,0,foreperson,Joseph,none,1,473,foreperson_congruent_male,13,5,23,Yes,,2,2,Female,100,16,0,0,0,100,100,100,100,49,0,0,23,Engligh,5,1,Chrome,Mac,800,1280,3.5265,
119,all,congruent_male,He,0,0,foreperson,Joseph,none,1,336,foreperson_congruent_male,13,6,23,Yes,,2,2,Female,100,16,0,0,0,100,100,100,100,49,0,0,23,Engligh,5,1,Chrome,Mac,800,1280,3.5265,
119,all,congruent_male,likes,0,0,foreperson,Joseph,none,1,318,foreperson_congruent_male,13,7,23,Yes,,2,2,Female,100,16,0,0,0,100,100,100,100,49,0,0,23,Engligh,5,1,Chrome,Mac,800,1280,3.5265,
119,all,congruent_male,cycling.,0,0,foreperson,Joseph,none,1,520,foreperson_congruent_male,13,8,23,Yes,,2,2,Female,100,16,0,0,0,100,100,100,100,49,0,0,23,Engligh,5,1,Chrome,Mac,800,1280,3.5265,
119,all,congruent_female,Elizabeth,0,0,hero,Elizabeth,none,1,543,hero_congruent_female,14,0,23,Yes,,2,2,Female,100,16,0,0,0,100,100,100,100,49,0,0,23,Engligh,5,1,Chrome,Mac,800,1280,3.5265,
119,all,congruent_female,is,0,0,hero,Elizabeth,none,1,339,hero_congruent_female,14,1,23,Yes,,2,2,Female,100,16,0,0,0,100,100,100,100,49,0,0,23,Engligh,5,1,Chrome,Mac,800,1280,3.5265,
119,all,congruent_female,a,0,0,hero,Elizabeth,none,1,415,hero_congruent_female,14,2,23,Yes,,2,2,Female,100,16,0,0,0,100,100,100,100,49,0,0,23,Engligh,5,1,Chrome,Mac,800,1280,3.5265,
119,all,congruent_female,heroine,0,0,hero,Elizabeth,critical,1,601,hero_congruent_female,14,3,23,Yes,,2,2,Female,100,16,0,0,0,100,100,100,100,49,0,0,23,Engligh,5,1,Chrome,Mac,800,1280,3.5265,
119,all,congruent_female,from,0,0,hero,Elizabeth,none,1,537,hero_congruent_female,14,4,23,Yes,,2,2,Female,100,16,0,0,0,100,100,100,100,49,0,0,23,Engligh,5,1,Chrome,Mac,800,1280,3.5265,
119,all,congruent_female,Iowa.,0,0,hero,Elizabeth,none,1,465,hero_congruent_female,14,5,23,Yes,,2,2,Female,100,16,0,0,0,100,100,100,100,49,0,0,23,Engligh,5,1,Chrome,Mac,800,1280,3.5265,
119,all,congruent_female,She,0,0,hero,Elizabeth,none,1,400,hero_congruent_female,14,6,23,Yes,,2,2,Female,100,16,0,0,0,100,100,100,100,49,0,0,23,Engligh,5,1,Chrome,Mac,800,1280,3.5265,
119,all,congruent_female,likes,0,0,hero,Elizabeth,none,1,327,hero_congruent_female,14,7,23,Yes,,2,2,Female,100,16,0,0,0,100,100,100,100,49,0,0,23,Engligh,5,1,Chrome,Mac,800,1280,3.5265,
119,all,congruent_female,hiking.,0,0,hero,Elizabeth,none,1,503,hero_congruent_female,14,8,23,Yes,,2,2,Female,100,16,0,0,0,100,100,100,100,49,0,0,23,Engligh,5,1,Chrome,Mac,800,1280,3.5265,
119,all,congruent_female,Emily,0,0,anchor,Emily,none,1,507,anchor_congruent_female,15,0,23,Yes,,2,2,Female,100,16,0,0,0,100,100,100,100,49,0,0,23,Engligh,5,1,Chrome,Mac,800,1280,3.5265,
119,all,congruent_female,is,0,0,anchor,Emily,none,1,292,anchor_congruent_female,15,1,23,Yes,,2,2,Female,100,16,0,0,0,100,100,100,100,49,0,0,23,Engligh,5,1,Chrome,Mac,800,1280,3.5265,
119,all,congruent_female,an,0,0,anchor,Emily,none,1,342,anchor_congruent_female,15,2,23,Yes,,2,2,Female,100,16,0,0,0,100,100,100,100,49,0,0,23,Engligh,5,1,Chrome,Mac,800,1280,3.5265,
119,all,congruent_female,anchorwoman,0,0,anchor,Emily,critical,1,615,anchor_congruent_female,15,3,23,Yes,,2,2,Female,100,16,0,0,0,100,100,100,100,49,0,0,23,Engligh,5,1,Chrome,Mac,800,1280,3.5265,
119,all,congruent_female,from,0,0,anchor,Emily,none,1,345,anchor_congruent_female,15,4,23,Yes,,2,2,Female,100,16,0,0,0,100,100,100,100,49,0,0,23,Engligh,5,1,Chrome,Mac,800,1280,3.5265,
119,all,congruent_female,Florida.,0,0,anchor,Emily,none,1,709,anchor_congruent_female,15,5,23,Yes,,2,2,Female,100,16,0,0,0,100,100,100,100,49,0,0,23,Engligh,5,1,Chrome,Mac,800,1280,3.5265,
119,all,congruent_female,She,0,0,anchor,Emily,none,1,254,anchor_congruent_female,15,6,23,Yes,,2,2,Female,100,16,0,0,0,100,100,100,100,49,0,0,23,Engligh,5,1,Chrome,Mac,800,1280,3.5265,
119,all,congruent_female,likes,0,0,anchor,Emily,none,1,400,anchor_congruent_female,15,7,23,Yes,,2,2,Female,100,16,0,0,0,100,100,100,100,49,0,0,23,Engligh,5,1,Chrome,Mac,800,1280,3.5265,
119,all,congruent_female,swimming.,0,0,anchor,Emily,none,1,525,anchor_congruent_female,15,8,23,Yes,,2,2,Female,100,16,0,0,0,100,100,100,100,49,0,0,23,Engligh,5,1,Chrome,Mac,800,1280,3.5265,
119,all,neutral_male,Michael,0,0,crewmember,Michael,none,1,327,_neutral_male,16,0,23,Yes,,2,2,Female,100,16,0,0,0,100,100,100,100,49,0,0,23,Engligh,5,1,Chrome,Mac,800,1280,3.5265,
119,all,neutral_male,is,0,0,crewmember,Michael,none,1,329,_neutral_male,16,1,23,Yes,,2,2,Female,100,16,0,0,0,100,100,100,100,49,0,0,23,Engligh,5,1,Chrome,Mac,800,1280,3.5265,
119,all,neutral_male,a,0,0,crewmember,Michael,none,1,347,_neutral_male,16,2,23,Yes,,2,2,Female,100,16,0,0,0,100,100,100,100,49,0,0,23,Engligh,5,1,Chrome,Mac,800,1280,3.5265,
119,all,neutral_male,crewmember,0,0,crewmember,Michael,none,1,582,_neutral_male,16,3,23,Yes,,2,2,Female,100,16,0,0,0,100,100,100,100,49,0,0,23,Engligh,5,1,Chrome,Mac,800,1280,3.5265,
119,all,neutral_male,from,0,0,crewmember,Michael,none,1,255,_neutral_male,16,4,23,Yes,,2,2,Female,100,16,0,0,0,100,100,100,100,49,0,0,23,Engligh,5,1,Chrome,Mac,800,1280,3.5265,
119,all,neutral_male,Kentucky.,0,0,crewmember,Michael,none,1,599,_neutral_male,16,5,23,Yes,,2,2,Female,100,16,0,0,0,100,100,100,100,49,0,0,23,Engligh,5,1,Chrome,Mac,800,1280,3.5265,
119,all,neutral_male,He,0,0,crewmember,Michael,none,1,273,_neutral_male,16,6,23,Yes,,2,2,Female,100,16,0,0,0,100,100,100,100,49,0,0,23,Engligh,5,1,Chrome,Mac,800,1280,3.5265,
119,all,neutral_male,likes,0,0,crewmember,Michael,none,1,255,_neutral_male,16,7,23,Yes,,2,2,Female,100,16,0,0,0,100,100,100,100,49,0,0,23,Engligh,5,1,Chrome,Mac,800,1280,3.5265,
119,all,neutral_male,walking.,0,0,crewmember,Michael,none,1,712,_neutral_male,16,8,23,Yes,,2,2,Female,100,16,0,0,0,100,100,100,100,49,0,0,23,Engligh,5,1,Chrome,Mac,800,1280,3.5265,
119,all,neutral_male,Austin,0,0,craftsperson,Austin,none,1,393,_neutral_male,17,0,23,Yes,,2,2,Female,100,16,0,0,0,100,100,100,100,49,0,0,23,Engligh,5,1,Chrome,Mac,800,1280,3.5265,
119,all,neutral_male,is,0,0,craftsperson,Austin,none,1,317,_neutral_male,17,1,23,Yes,,2,2,Female,100,16,0,0,0,100,100,100,100,49,0,0,23,Engligh,5,1,Chrome,Mac,800,1280,3.5265,
119,all,neutral_male,a,0,0,craftsperson,Austin,none,1,311,_neutral_male,17,2,23,Yes,,2,2,Female,100,16,0,0,0,100,100,100,100,49,0,0,23,Engligh,5,1,Chrome,Mac,800,1280,3.5265,
119,all,neutral_male,craftsperson,0,0,craftsperson,Austin,critical,1,586,_neutral_male,17,3,23,Yes,,2,2,Female,100,16,0,0,0,100,100,100,100,49,0,0,23,Engligh,5,1,Chrome,Mac,800,1280,3.5265,
119,all,neutral_male,from,0,0,craftsperson,Austin,none,1,294,_neutral_male,17,4,23,Yes,,2,2,Female,100,16,0,0,0,100,100,100,100,49,0,0,23,Engligh,5,1,Chrome,Mac,800,1280,3.5265,
119,all,neutral_male,New Mexico.,0,0,craftsperson,Austin,none,1,497,_neutral_male,17,5,23,Yes,,2,2,Female,100,16,0,0,0,100,100,100,100,49,0,0,23,Engligh,5,1,Chrome,Mac,800,1280,3.5265,
119,all,neutral_male,He,0,0,craftsperson,Austin,none,1,259,_neutral_male,17,6,23,Yes,,2,2,Female,100,16,0,0,0,100,100,100,100,49,0,0,23,Engligh,5,1,Chrome,Mac,800,1280,3.5265,
119,all,neutral_male,likes,0,0,craftsperson,Austin,none,1,299,_neutral_male,17,7,23,Yes,,2,2,Female,100,16,0,0,0,100,100,100,100,49,0,0,23,Engligh,5,1,Chrome,Mac,800,1280,3.5265,
119,all,neutral_male,dancing.,0,0,craftsperson,Austin,none,1,392,_neutral_male,17,8,23,Yes,,2,2,Female,100,16,0,0,0,100,100,100,100,49,0,0,23,Engligh,5,1,Chrome,Mac,800,1280,3.5265,
119,all,congruent_female,Sarah,0,0,hunter,Sarah,none,1,293,hunter_congruent_female,18,0,23,Yes,,2,2,Female,100,16,0,0,0,100,100,100,100,49,0,0,23,Engligh,5,1,Chrome,Mac,800,1280,3.5265,
119,all,congruent_female,is,0,0,hunter,Sarah,none,1,285,hunter_congruent_female,18,1,23,Yes,,2,2,Female,100,16,0,0,0,100,100,100,100,49,0,0,23,Engligh,5,1,Chrome,Mac,800,1280,3.5265,
119,all,congruent_female,a,0,0,hunter,Sarah,none,1,369,hunter_congruent_female,18,2,23,Yes,,2,2,Female,100,16,0,0,0,100,100,100,100,49,0,0,23,Engligh,5,1,Chrome,Mac,800,1280,3.5265,
119,all,congruent_female,huntress,0,0,hunter,Sarah,critical,1,522,hunter_congruent_female,18,3,23,Yes,,2,2,Female,100,16,0,0,0,100,100,100,100,49,0,0,23,Engligh,5,1,Chrome,Mac,800,1280,3.5265,
119,all,congruent_female,from,0,0,hunter,Sarah,none,1,291,hunter_congruent_female,18,4,23,Yes,,2,2,Female,100,16,0,0,0,100,100,100,100,49,0,0,23,Engligh,5,1,Chrome,Mac,800,1280,3.5265,
119,all,congruent_female,Oklahoma.,0,0,hunter,Sarah,none,1,583,hunter_congruent_female,18,5,23,Yes,,2,2,Female,100,16,0,0,0,100,100,100,100,49,0,0,23,Engligh,5,1,Chrome,Mac,800,1280,3.5265,
119,all,congruent_female,She,0,0,hunter,Sarah,none,1,427,hunter_congruent_female,18,6,23,Yes,,2,2,Female,100,16,0,0,0,100,100,100,100,49,0,0,23,Engligh,5,1,Chrome,Mac,800,1280,3.5265,
119,all,congruent_female,likes,0,0,hunter,Sarah,none,1,288,hunter_congruent_female,18,7,23,Yes,,2,2,Female,100,16,0,0,0,100,100,100,100,49,0,0,23,Engligh,5,1,Chrome,Mac,800,1280,3.5265,
119,all,congruent_female,dancing.,0,0,hunter,Sarah,none,1,421,hunter_congruent_female,18,8,23,Yes,,2,2,Female,100,16,0,0,0,100,100,100,100,49,0,0,23,Engligh,5,1,Chrome,Mac,800,1280,3.5265,
119,all,neutral_male,Joshua,0,0,layperson,Joshua,none,1,354,_neutral_male,19,0,23,Yes,,2,2,Female,100,16,0,0,0,100,100,100,100,49,0,0,23,Engligh,5,1,Chrome,Mac,800,1280,3.5265,
119,all,neutral_male,is,0,0,layperson,Joshua,none,1,258,_neutral_male,19,1,23,Yes,,2,2,Female,100,16,0,0,0,100,100,100,100,49,0,0,23,Engligh,5,1,Chrome,Mac,800,1280,3.5265,
119,all,neutral_male,a,0,0,layperson,Joshua,none,1,381,_neutral_male,19,2,23,Yes,,2,2,Female,100,16,0,0,0,100,100,100,100,49,0,0,23,Engligh,5,1,Chrome,Mac,800,1280,3.5265,
119,all,neutral_male,layperson,0,0,layperson,Joshua,critical,1,837,_neutral_male,19,3,23,Yes,,2,2,Female,100,16,0,0,0,100,100,100,100,49,0,0,23,Engligh,5,1,Chrome,Mac,800,1280,3.5265,
119,all,neutral_male,from,0,0,layperson,Joshua,none,1,180,_neutral_male,19,4,23,Yes,,2,2,Female,100,16,0,0,0,100,100,100,100,49,0,0,23,Engligh,5,1,Chrome,Mac,800,1280,3.5265,
119,all,neutral_male,Alabama.,0,0,layperson,Joshua,none,1,505,_neutral_male,19,5,23,Yes,,2,2,Female,100,16,0,0,0,100,100,100,100,49,0,0,23,Engligh,5,1,Chrome,Mac,800,1280,3.5265,
119,all,neutral_male,He,0,0,layperson,Joshua,none,1,274,_neutral_male,19,6,23,Yes,,2,2,Female,100,16,0,0,0,100,100,100,100,49,0,0,23,Engligh,5,1,Chrome,Mac,800,1280,3.5265,
119,all,neutral_male,likes,0,0,layperson,Joshua,none,1,320,_neutral_male,19,7,23,Yes,,2,2,Female,100,16,0,0,0,100,100,100,100,49,0,0,23,Engligh,5,1,Chrome,Mac,800,1280,3.5265,
119,all,neutral_male,surfing.,0,0,layperson,Joshua,none,1,636,_neutral_male,19,8,23,Yes,,2,2,Female,100,16,0,0,0,100,100,100,100,49,0,0,23,Engligh,5,1,Chrome,Mac,800,1280,3.5265,
119,all,neutral_female,Samantha,0,0,flight attendant,Samantha,none,1,246,flight attendant_neutral_female,20,0,23,Yes,,2,2,Female,100,16,0,0,0,100,100,100,100,49,0,0,23,Engligh,5,1,Chrome,Mac,800,1280,3.5265,
119,all,neutral_female,is,0,0,flight attendant,Samantha,none,1,466,flight attendant_neutral_female,20,1,23,Yes,,2,2,Female,100,16,0,0,0,100,100,100,100,49,0,0,23,Engligh,5,1,Chrome,Mac,800,1280,3.5265,
119,all,neutral_female,a,0,0,flight attendant,Samantha,none,1,356,flight attendant_neutral_female,20,2,23,Yes,,2,2,Female,100,16,0,0,0,100,100,100,100,49,0,0,23,Engligh,5,1,Chrome,Mac,800,1280,3.5265,
119,all,neutral_female,flight attendant,0,0,flight attendant,Samantha,none,1,643,flight attendant_neutral_female,20,3,23,Yes,,2,2,Female,100,16,0,0,0,100,100,100,100,49,0,0,23,Engligh,5,1,Chrome,Mac,800,1280,3.5265,
119,all,neutral_female,from,0,0,flight attendant,Samantha,none,1,291,flight attendant_neutral_female,20,4,23,Yes,,2,2,Female,100,16,0,0,0,100,100,100,100,49,0,0,23,Engligh,5,1,Chrome,Mac,800,1280,3.5265,
119,all,neutral_female,Tennessee.,0,0,flight attendant,Samantha,none,1,594,flight attendant_neutral_female,20,5,23,Yes,,2,2,Female,100,16,0,0,0,100,100,100,100,49,0,0,23,Engligh,5,1,Chrome,Mac,800,1280,3.5265,
119,all,neutral_female,She,0,0,flight attendant,Samantha,none,1,250,flight attendant_neutral_female,20,6,23,Yes,,2,2,Female,100,16,0,0,0,100,100,100,100,49,0,0,23,Engligh,5,1,Chrome,Mac,800,1280,3.5265,
119,all,neutral_female,likes,0,0,flight attendant,Samantha,none,1,373,flight attendant_neutral_female,20,7,23,Yes,,2,2,Female,100,16,0,0,0,100,100,100,100,49,0,0,23,Engligh,5,1,Chrome,Mac,800,1280,3.5265,
119,all,neutral_female,hiking.,0,0,flight attendant,Samantha,none,1,388,flight attendant_neutral_female,20,8,23,Yes,,2,2,Female,100,16,0,0,0,100,100,100,100,49,0,0,23,Engligh,5,1,Chrome,Mac,800,1280,3.5265,
122,all,neutral_female,Brittany,0,0,performer,Brittany,none,1,582,example,0,0,43,,I liked the word-by-word part,2,2,Female,100,0,0,0,0,100,100,100,100,0,0,0,0,English,5,0,Chrome,Windows,720,1280,6.918433333333334,
122,all,neutral_female,is,0,0,performer,Brittany,none,1,465,example,0,1,43,,I liked the word-by-word part,2,2,Female,100,0,0,0,0,100,100,100,100,0,0,0,0,English,5,0,Chrome,Windows,720,1280,6.918433333333334,
122,all,neutral_female,a,0,0,performer,Brittany,none,1,446,example,0,2,43,,I liked the word-by-word part,2,2,Female,100,0,0,0,0,100,100,100,100,0,0,0,0,English,5,0,Chrome,Windows,720,1280,6.918433333333334,
122,all,neutral_female,performer,0,0,performer,Brittany,critical,1,488,example,0,3,43,,I liked the word-by-word part,2,2,Female,100,0,0,0,0,100,100,100,100,0,0,0,0,English,5,0,Chrome,Windows,720,1280,6.918433333333334,
122,all,neutral_female,from,0,0,performer,Brittany,none,1,456,example,0,4,43,,I liked the word-by-word part,2,2,Female,100,0,0,0,0,100,100,100,100,0,0,0,0,English,5,0,Chrome,Windows,720,1280,6.918433333333334,
122,all,neutral_female,South Korea.,0,0,performer,Brittany,none,1,528,example,0,5,43,,I liked the word-by-word part,2,2,Female,100,0,0,0,0,100,100,100,100,0,0,0,0,English,5,0,Chrome,Windows,720,1280,6.918433333333334,
122,all,neutral_female,She,0,0,performer,Brittany,none,1,480,example,0,6,43,,I liked the word-by-word part,2,2,Female,100,0,0,0,0,100,100,100,100,0,0,0,0,English,5,0,Chrome,Windows,720,1280,6.918433333333334,
122,all,neutral_female,likes,0,0,performer,Brittany,none,1,464,example,0,7,43,,I liked the word-by-word part,2,2,Female,100,0,0,0,0,100,100,100,100,0,0,0,0,English,5,0,Chrome,Windows,720,1280,6.918433333333334,
122,all,neutral_female,cycling.,0,0,performer,Brittany,none,1,1553,example,0,8,43,,I liked the word-by-word part,2,2,Female,100,0,0,0,0,100,100,100,100,0,0,0,0,English,5,0,Chrome,Windows,720,1280,6.918433333333334,
122,all,congruent_female,Emily,0,0,flight attendant,Emily,none,1,471,flight attendant_congruent_female,1,0,43,,I liked the word-by-word part,2,2,Female,100,0,0,0,0,100,100,100,100,0,0,0,0,English,5,0,Chrome,Windows,720,1280,6.918433333333334,
122,all,congruent_female,is,0,0,flight attendant,Emily,none,1,400,flight attendant_congruent_female,1,1,43,,I liked the word-by-word part,2,2,Female,100,0,0,0,0,100,100,100,100,0,0,0,0,English,5,0,Chrome,Windows,720,1280,6.918433333333334,
122,all,congruent_female,a,0,0,flight attendant,Emily,none,1,416,flight attendant_congruent_female,1,2,43,,I liked the word-by-word part,2,2,Female,100,0,0,0,0,100,100,100,100,0,0,0,0,English,5,0,Chrome,Windows,720,1280,6.918433333333334,
122,all,congruent_female,stewardess,0,0,flight attendant,Emily,none,1,536,flight attendant_congruent_female,1,3,43,,I liked the word-by-word part,2,2,Female,100,0,0,0,0,100,100,100,100,0,0,0,0,English,5,0,Chrome,Windows,720,1280,6.918433333333334,
122,all,congruent_female,from,0,0,flight attendant,Emily,none,1,424,flight attendant_congruent_female,1,4,43,,I liked the word-by-word part,2,2,Female,100,0,0,0,0,100,100,100,100,0,0,0,0,English,5,0,Chrome,Windows,720,1280,6.918433333333334,
122,all,congruent_female,Tennessee.,0,0,flight attendant,Emily,none,1,456,flight attendant_congruent_female,1,5,43,,I liked the word-by-word part,2,2,Female,100,0,0,0,0,100,100,100,100,0,0,0,0,English,5,0,Chrome,Windows,720,1280,6.918433333333334,
122,all,congruent_female,She,0,0,flight attendant,Emily,none,1,456,flight attendant_congruent_female,1,6,43,,I liked the word-by-word part,2,2,Female,100,0,0,0,0,100,100,100,100,0,0,0,0,English,5,0,Chrome,Windows,720,1280,6.918433333333334,
122,all,congruent_female,likes,0,0,flight attendant,Emily,none,1,457,flight attendant_congruent_female,1,7,43,,I liked the word-by-word part,2,2,Female,100,0,0,0,0,100,100,100,100,0,0,0,0,English,5,0,Chrome,Windows,720,1280,6.918433333333334,
122,all,congruent_female,hiking.,0,0,flight attendant,Emily,none,1,1503,flight attendant_congruent_female,1,8,43,,I liked the word-by-word part,2,2,Female,100,0,0,0,0,100,100,100,100,0,0,0,0,English,5,0,Chrome,Windows,720,1280,6.918433333333334,
122,all,neutral_female,Jessica,0,0,firefighter,Jessica,none,1,487,firefighter_neutral_female,2,0,43,,I liked the word-by-word part,2,2,Female,100,0,0,0,0,100,100,100,100,0,0,0,0,English,5,0,Chrome,Windows,720,1280,6.918433333333334,
122,all,neutral_female,is,0,0,firefighter,Jessica,none,1,392,firefighter_neutral_female,2,1,43,,I liked the word-by-word part,2,2,Female,100,0,0,0,0,100,100,100,100,0,0,0,0,English,5,0,Chrome,Windows,720,1280,6.918433333333334,
122,all,neutral_female,a,0,0,firefighter,Jessica,none,1,424,firefighter_neutral_female,2,2,43,,I liked the word-by-word part,2,2,Female,100,0,0,0,0,100,100,100,100,0,0,0,0,English,5,0,Chrome,Windows,720,1280,6.918433333333334,
122,all,neutral_female,firefighter,0,0,firefighter,Jessica,critical,1,489,firefighter_neutral_female,2,3,43,,I liked the word-by-word part,2,2,Female,100,0,0,0,0,100,100,100,100,0,0,0,0,English,5,0,Chrome,Windows,720,1280,6.918433333333334,
122,all,neutral_female,from,0,0,firefighter,Jessica,none,1,447,firefighter_neutral_female,2,4,43,,I liked the word-by-word part,2,2,Female,100,0,0,0,0,100,100,100,100,0,0,0,0,English,5,0,Chrome,Windows,720,1280,6.918433333333334,
122,all,neutral_female,North Carolina.,0,0,firefighter,Jessica,none,1,776,firefighter_neutral_female,2,5,43,,I liked the word-by-word part,2,2,Female,100,0,0,0,0,100,100,100,100,0,0,0,0,English,5,0,Chrome,Windows,720,1280,6.918433333333334,
122,all,neutral_female,She,0,0,firefighter,Jessica,none,1,456,firefighter_neutral_female,2,6,43,,I liked the word-by-word part,2,2,Female,100,0,0,0,0,100,100,100,100,0,0,0,0,English,5,0,Chrome,Windows,720,1280,6.918433333333334,
122,all,neutral_female,likes,0,0,firefighter,Jessica,none,1,432,firefighter_neutral_female,2,7,43,,I liked the word-by-word part,2,2,Female,100,0,0,0,0,100,100,100,100,0,0,0,0,English,5,0,Chrome,Windows,720,1280,6.918433333333334,
122,all,neutral_female,cooking.,0,0,firefighter,Jessica,none,1,1273,firefighter_neutral_female,2,8,43,,I liked the word-by-word part,2,2,Female,100,0,0,0,0,100,100,100,100,0,0,0,0,English,5,0,Chrome,Windows,720,1280,6.918433333333334,
122,all,neutral_male,Nicholas,0,0,camera operator,Nicholas,none,1,407,_neutral_male,3,0,43,,I liked the word-by-word part,2,2,Female,100,0,0,0,0,100,100,100,100,0,0,0,0,English,5,0,Chrome,Windows,720,1280,6.918433333333334,
122,all,neutral_male,is,0,0,camera operator,Nicholas,none,1,384,_neutral_male,3,1,43,,I liked the word-by-word part,2,2,Female,100,0,0,0,0,100,100,100,100,0,0,0,0,English,5,0,Chrome,Windows,720,1280,6.918433333333334,
122,all,neutral_male,a,0,0,camera operator,Nicholas,none,1,472,_neutral_male,3,2,43,,I liked the word-by-word part,2,2,Female,100,0,0,0,0,100,100,100,100,0,0,0,0,English,5,0,Chrome,Windows,720,1280,6.918433333333334,
122,all,neutral_male,camera operator,0,0,camera operator,Nicholas,critical,1,776,_neutral_male,3,3,43,,I liked the word-by-word part,2,2,Female,100,0,0,0,0,100,100,100,100,0,0,0,0,English,5,0,Chrome,Windows,720,1280,6.918433333333334,
122,all,neutral_male,from,0,0,camera operator,Nicholas,none,1,487,_neutral_male,3,4,43,,I liked the word-by-word part,2,2,Female,100,0,0,0,0,100,100,100,100,0,0,0,0,English,5,0,Chrome,Windows,720,1280,6.918433333333334,
122,all,neutral_male,North Dakota.,0,0,camera operator,Nicholas,none,1,545,_neutral_male,3,5,43,,I liked the word-by-word part,2,2,Female,100,0,0,0,0,100,100,100,100,0,0,0,0,English,5,0,Chrome,Windows,720,1280,6.918433333333334,
122,all,neutral_male,He,0,0,camera operator,Nicholas,none,1,352,_neutral_male,3,6,43,,I liked the word-by-word part,2,2,Female,100,0,0,0,0,100,100,100,100,0,0,0,0,English,5,0,Chrome,Windows,720,1280,6.918433333333334,
122,all,neutral_male,likes,0,0,camera operator,Nicholas,none,1,336,_neutral_male,3,7,43,,I liked the word-by-word part,2,2,Female,100,0,0,0,0,100,100,100,100,0,0,0,0,English,5,0,Chrome,Windows,720,1280,6.918433333333334,
122,all,neutral_male,walking.,0,0,camera operator,Nicholas,none,1,920,_neutral_male,3,8,43,,I liked the word-by-word part,2,2,Female,100,0,0,0,0,100,100,100,100,0,0,0,0,English,5,0,Chrome,Windows,720,1280,6.918433333333334,
122,all,neutral_female,Alyssa,0,0,host,Alyssa,none,1,416,host_neutral_female,4,0,43,,I liked the word-by-word part,2,2,Female,100,0,0,0,0,100,100,100,100,0,0,0,0,English,5,0,Chrome,Windows,720,1280,6.918433333333334,
122,all,neutral_female,is,0,0,host,Alyssa,none,1,368,host_neutral_female,4,1,43,,I liked the word-by-word part,2,2,Female,100,0,0,0,0,100,100,100,100,0,0,0,0,English,5,0,Chrome,Windows,720,1280,6.918433333333334,
122,all,neutral_female,a,0,0,host,Alyssa,none,1,384,host_neutral_female,4,2,43,,I liked the word-by-word part,2,2,Female,100,0,0,0,0,100,100,100,100,0,0,0,0,English,5,0,Chrome,Windows,720,1280,6.918433333333334,
122,all,neutral_female,host,0,0,host,Alyssa,critical,1,408,host_neutral_female,4,3,43,,I liked the word-by-word part,2,2,Female,100,0,0,0,0,100,100,100,100,0,0,0,0,English,5,0,Chrome,Windows,720,1280,6.918433333333334,
122,all,neutral_female,from,0,0,host,Alyssa,none,1,360,host_neutral_female,4,4,43,,I liked the word-by-word part,2,2,Female,100,0,0,0,0,100,100,100,100,0,0,0,0,English,5,0,Chrome,Windows,720,1280,6.918433333333334,
122,all,neutral_female,Wyoming.,0,0,host,Alyssa,none,1,544,host_neutral_female,4,5,43,,I liked the word-by-word part,2,2,Female,100,0,0,0,0,100,100,100,100,0,0,0,0,English,5,0,Chrome,Windows,720,1280,6.918433333333334,
122,all,neutral_female,She,0,0,host,Alyssa,none,1,376,host_neutral_female,4,6,43,,I liked the word-by-word part,2,2,Female,100,0,0,0,0,100,100,100,100,0,0,0,0,English,5,0,Chrome,Windows,720,1280,6.918433333333334,
122,all,neutral_female,likes,0,0,host,Alyssa,none,1,304,host_neutral_female,4,7,43,,I liked the word-by-word part,2,2,Female,100,0,0,0,0,100,100,100,100,0,0,0,0,English,5,0,Chrome,Windows,720,1280,6.918433333333334,
122,all,neutral_female,reading.,0,0,host,Alyssa,none,1,784,host_neutral_female,4,8,43,,I liked the word-by-word part,2,2,Female,100,0,0,0,0,100,100,100,100,0,0,0,0,English,5,0,Chrome,Windows,720,1280,6.918433333333334,
122,all,congruent_male,Andrew,0,0,foreperson,Andrew,none,1,341,foreperson_congruent_male,5,0,43,,I liked the word-by-word part,2,2,Female,100,0,0,0,0,100,100,100,100,0,0,0,0,English,5,0,Chrome,Windows,720,1280,6.918433333333334,
122,all,congruent_male,is,0,0,foreperson,Andrew,none,1,384,foreperson_congruent_male,5,1,43,,I liked the word-by-word part,2,2,Female,100,0,0,0,0,100,100,100,100,0,0,0,0,English,5,0,Chrome,Windows,720,1280,6.918433333333334,
122,all,congruent_male,a,0,0,foreperson,Andrew,none,1,368,foreperson_congruent_male,5,2,43,,I liked the word-by-word part,2,2,Female,100,0,0,0,0,100,100,100,100,0,0,0,0,English,5,0,Chrome,Windows,720,1280,6.918433333333334,
122,all,congruent_male,foreman,0,0,foreperson,Andrew,none,1,440,foreperson_congruent_male,5,3,43,,I liked the word-by-word part,2,2,Female,100,0,0,0,0,100,100,100,100,0,0,0,0,English,5,0,Chrome,Windows,720,1280,6.918433333333334,
122,all,congruent_male,from,0,0,foreperson,Andrew,none,1,407,foreperson_congruent_male,5,4,43,,I liked the word-by-word part,2,2,Female,100,0,0,0,0,100,100,100,100,0,0,0,0,English,5,0,Chrome,Windows,720,1280,6.918433333333334,
122,all,congruent_male,New York.,0,0,foreperson,Andrew,none,1,705,foreperson_congruent_male,5,5,43,,I liked the word-by-word part,2,2,Female,100,0,0,0,0,100,100,100,100,0,0,0,0,English,5,0,Chrome,Windows,720,1280,6.918433333333334,
122,all,congruent_male,He,0,0,foreperson,Andrew,none,1,424,foreperson_congruent_male,5,6,43,,I liked the word-by-word part,2,2,Female,100,0,0,0,0,100,100,100,100,0,0,0,0,English,5,0,Chrome,Windows,720,1280,6.918433333333334,
122,all,congruent_male,likes,0,0,foreperson,Andrew,none,1,320,foreperson_congruent_male,5,7,43,,I liked the word-by-word part,2,2,Female,100,0,0,0,0,100,100,100,100,0,0,0,0,English,5,0,Chrome,Windows,720,1280,6.918433333333334,
122,all,congruent_male,cycling.,0,0,foreperson,Andrew,none,1,704,foreperson_congruent_male,5,8,43,,I liked the word-by-word part,2,2,Female,100,0,0,0,0,100,100,100,100,0,0,0,0,English,5,0,Chrome,Windows,720,1280,6.918433333333334,
122,all,neutral_male,Jacob,0,0,salesperson,Jacob,none,1,479,_neutral_male,6,0,43,,I liked the word-by-word part,2,2,Female,100,0,0,0,0,100,100,100,100,0,0,0,0,English,5,0,Chrome,Windows,720,1280,6.918433333333334,
122,all,neutral_male,is,0,0,salesperson,Jacob,none,1,464,_neutral_male,6,1,43,,I liked the word-by-word part,2,2,Female,100,0,0,0,0,100,100,100,100,0,0,0,0,English,5,0,Chrome,Windows,720,1280,6.918433333333334,
122,all,neutral_male,a,0,0,salesperson,Jacob,none,1,416,_neutral_male,6,2,43,,I liked the word-by-word part,2,2,Female,100,0,0,0,0,100,100,100,100,0,0,0,0,English,5,0,Chrome,Windows,720,1280,6.918433333333334,
122,all,neutral_male,salesperson,0,0,salesperson,Jacob,critical,1,720,_neutral_male,6,3,43,,I liked the word-by-word part,2,2,Female,100,0,0,0,0,100,100,100,100,0,0,0,0,English,5,0,Chrome,Windows,720,1280,6.918433333333334,
122,all,neutral_male,from,0,0,salesperson,Jacob,none,1,384,_neutral_male,6,4,43,,I liked the word-by-word part,2,2,Female,100,0,0,0,0,100,100,100,100,0,0,0,0,English,5,0,Chrome,Windows,720,1280,6.918433333333334,
122,all,neutral_male,Delaware.,0,0,salesperson,Jacob,none,1,544,_neutral_male,6,5,43,,I liked the word-by-word part,2,2,Female,100,0,0,0,0,100,100,100,100,0,0,0,0,English,5,0,Chrome,Windows,720,1280,6.918433333333334,
122,all,neutral_male,He,0,0,salesperson,Jacob,none,1,456,_neutral_male,6,6,43,,I liked the word-by-word part,2,2,Female,100,0,0,0,0,100,100,100,100,0,0,0,0,English,5,0,Chrome,Windows,720,1280,6.918433333333334,
122,all,neutral_male,likes,0,0,salesperson,Jacob,none,1,336,_neutral_male,6,7,43,,I liked the word-by-word part,2,2,Female,100,0,0,0,0,100,100,100,100,0,0,0,0,English,5,0,Chrome,Windows,720,1280,6.918433333333334,
122,all,neutral_male,cooking.,0,0,salesperson,Jacob,none,1,704,_neutral_male,6,8,43,,I liked the word-by-word part,2,2,Female,100,0,0,0,0,100,100,100,100,0,0,0,0,English,5,0,Chrome,Windows,720,1280,6.918433333333334,
122,all,neutral_male,David,0,0,hero,David,none,1,424,_neutral_male,7,0,43,,I liked the word-by-word part,2,2,Female,100,0,0,0,0,100,100,100,100,0,0,0,0,English,5,0,Chrome,Windows,720,1280,6.918433333333334,
122,all,neutral_male,is,0,0,hero,David,none,1,384,_neutral_male,7,1,43,,I liked the word-by-word part,2,2,Female,100,0,0,0,0,100,100,100,100,0,0,0,0,English,5,0,Chrome,Windows,720,1280,6.918433333333334,
122,all,neutral_male,a,0,0,hero,David,none,1,352,_neutral_male,7,2,43,,I liked the word-by-word part,2,2,Female,100,0,0,0,0,100,100,100,100,0,0,0,0,English,5,0,Chrome,Windows,720,1280,6.918433333333334,
122,all,neutral_male,hero,0,0,hero,David,critical,1,368,_neutral_male,7,3,43,,I liked the word-by-word part,2,2,Female,100,0,0,0,0,100,100,100,100,0,0,0,0,English,5,0,Chrome,Windows,720,1280,6.918433333333334,
122,all,neutral_male,from,0,0,hero,David,none,1,368,_neutral_male,7,4,43,,I liked the word-by-word part,2,2,Female,100,0,0,0,0,100,100,100,100,0,0,0,0,English,5,0,Chrome,Windows,720,1280,6.918433333333334,
122,all,neutral_male,Iowa.,0,0,hero,David,none,1,568,_neutral_male,7,5,43,,I liked the word-by-word part,2,2,Female,100,0,0,0,0,100,100,100,100,0,0,0,0,English,5,0,Chrome,Windows,720,1280,6.918433333333334,
122,all,neutral_male,He,0,0,hero,David,none,1,808,_neutral_male,7,6,43,,I liked the word-by-word part,2,2,Female,100,0,0,0,0,100,100,100,100,0,0,0,0,English,5,0,Chrome,Windows,720,1280,6.918433333333334,
122,all,neutral_male,likes,0,0,hero,David,none,1,384,_neutral_male,7,7,43,,I liked the word-by-word part,2,2,Female,100,0,0,0,0,100,100,100,100,0,0,0,0,English,5,0,Chrome,Windows,720,1280,6.918433333333334,
122,all,neutral_male,hiking.,0,0,hero,David,none,1,792,_neutral_male,7,8,43,,I liked the word-by-word part,2,2,Female,100,0,0,0,0,100,100,100,100,0,0,0,0,English,5,0,Chrome,Windows,720,1280,6.918433333333334,
122,all,neutral_female,Madison,0,0,anchor,Madison,none,1,383,anchor_neutral_female,8,0,43,,I liked the word-by-word part,2,2,Female,100,0,0,0,0,100,100,100,100,0,0,0,0,English,5,0,Chrome,Windows,720,1280,6.918433333333334,
122,all,neutral_female,is,0,0,anchor,Madison,none,1,440,anchor_neutral_female,8,1,43,,I liked the word-by-word part,2,2,Female,100,0,0,0,0,100,100,100,100,0,0,0,0,English,5,0,Chrome,Windows,720,1280,6.918433333333334,
122,all,neutral_female,an,0,0,anchor,Madison,none,1,464,anchor_neutral_female,8,2,43,,I liked the word-by-word part,2,2,Female,100,0,0,0,0,100,100,100,100,0,0,0,0,English,5,0,Chrome,Windows,720,1280,6.918433333333334,
122,all,neutral_female,anchor,0,0,anchor,Madison,critical,1,673,anchor_neutral_female,8,3,43,,I liked the word-by-word part,2,2,Female,100,0,0,0,0,100,100,100,100,0,0,0,0,English,5,0,Chrome,Windows,720,1280,6.918433333333334,
122,all,neutral_female,from,0,0,anchor,Madison,none,1,415,anchor_neutral_female,8,4,43,,I liked the word-by-word part,2,2,Female,100,0,0,0,0,100,100,100,100,0,0,0,0,English,5,0,Chrome,Windows,720,1280,6.918433333333334,
122,all,neutral_female,Florida.,0,0,anchor,Madison,none,1,1625,anchor_neutral_female,8,5,43,,I liked the word-by-word part,2,2,Female,100,0,0,0,0,100,100,100,100,0,0,0,0,English,5,0,Chrome,Windows,720,1280,6.918433333333334,
122,all,neutral_female,She,0,0,anchor,Madison,none,1,416,anchor_neutral_female,8,6,43,,I liked the word-by-word part,2,2,Female,100,0,0,0,0,100,100,100,100,0,0,0,0,English,5,0,Chrome,Windows,720,1280,6.918433333333334,
122,all,neutral_female,likes,0,0,anchor,Madison,none,1,368,anchor_neutral_female,8,7,43,,I liked the word-by-word part,2,2,Female,100,0,0,0,0,100,100,100,100,0,0,0,0,English,5,0,Chrome,Windows,720,1280,6.918433333333334,
122,all,neutral_female,swimming.,0,0,anchor,Madison,none,1,800,anchor_neutral_female,8,8,43,,I liked the word-by-word part,2,2,Female,100,0,0,0,0,100,100,100,100,0,0,0,0,English,5,0,Chrome,Windows,720,1280,6.918433333333334,
122,all,neutral_female,Megan,0,0,layperson,Megan,none,1,496,layperson_neutral_female,9,0,43,,I liked the word-by-word part,2,2,Female,100,0,0,0,0,100,100,100,100,0,0,0,0,English,5,0,Chrome,Windows,720,1280,6.918433333333334,
122,all,neutral_female,is,0,0,layperson,Megan,none,1,384,layperson_neutral_female,9,1,43,,I liked the word-by-word part,2,2,Female,100,0,0,0,0,100,100,100,100,0,0,0,0,English,5,0,Chrome,Windows,720,1280,6.918433333333334,
122,all,neutral_female,a,0,0,layperson,Megan,none,1,455,layperson_neutral_female,9,2,43,,I liked the word-by-word part,2,2,Female,100,0,0,0,0,100,100,100,100,0,0,0,0,English,5,0,Chrome,Windows,720,1280,6.918433333333334,
122,all,neutral_female,layperson,0,0,layperson,Megan,critical,1,464,layperson_neutral_female,9,3,43,,I liked the word-by-word part,2,2,Female,100,0,0,0,0,100,100,100,100,0,0,0,0,English,5,0,Chrome,Windows,720,1280,6.918433333333334,
122,all,neutral_female,from,0,0,layperson,Megan,none,1,1449,layperson_neutral_female,9,4,43,,I liked the word-by-word part,2,2,Female,100,0,0,0,0,100,100,100,100,0,0,0,0,English,5,0,Chrome,Windows,720,1280,6.918433333333334,
122,all,neutral_female,Alabama.,0,0,layperson,Megan,none,1,1064,layperson_neutral_female,9,5,43,,I liked the word-by-word part,2,2,Female,100,0,0,0,0,100,100,100,100,0,0,0,0,English,5,0,Chrome,Windows,720,1280,6.918433333333334,
122,all,neutral_female,She,0,0,layperson,Megan,none,1,439,layperson_neutral_female,9,6,43,,I liked the word-by-word part,2,2,Female,100,0,0,0,0,100,100,100,100,0,0,0,0,English,5,0,Chrome,Windows,720,1280,6.918433333333334,
122,all,neutral_female,likes,0,0,layperson,Megan,none,1,320,layperson_neutral_female,9,7,43,,I liked the word-by-word part,2,2,Female,100,0,0,0,0,100,100,100,100,0,0,0,0,English,5,0,Chrome,Windows,720,1280,6.918433333333334,
122,all,neutral_female,surfing.,0,0,layperson,Megan,none,1,497,layperson_neutral_female,9,8,43,,I liked the word-by-word part,2,2,Female,100,0,0,0,0,100,100,100,100,0,0,0,0,English,5,0,Chrome,Windows,720,1280,6.918433333333334,
122,all,congruent_female,Lauren,0,0,stunt double,Lauren,none,1,399,stunt double_congruent_female,10,0,43,,I liked the word-by-word part,2,2,Female,100,0,0,0,0,100,100,100,100,0,0,0,0,English,5,0,Chrome,Windows,720,1280,6.918433333333334,
122,all,congruent_female,is,0,0,stunt double,Lauren,none,1,368,stunt double_congruent_female,10,1,43,,I liked the word-by-word part,2,2,Female,100,0,0,0,0,100,100,100,100,0,0,0,0,English,5,0,Chrome,Windows,720,1280,6.918433333333334,
122,all,congruent_female,a,0,0,stunt double,Lauren,none,1,536,stunt double_congruent_female,10,2,43,,I liked the word-by-word part,2,2,Female,100,0,0,0,0,100,100,100,100,0,0,0,0,English,5,0,Chrome,Windows,720,1280,6.918433333333334,
122,all,congruent_female,stuntwoman,0,0,stunt double,Lauren,critical,1,616,stunt double_congruent_female,10,3,43,,I liked the word-by-word part,2,2,Female,100,0,0,0,0,100,100,100,100,0,0,0,0,English,5,0,Chrome,Windows,720,1280,6.918433333333334,
122,all,congruent_female,from,0,0,stunt double,Lauren,none,1,368,stunt double_congruent_female,10,4,43,,I liked the word-by-word part,2,2,Female,100,0,0,0,0,100,100,100,100,0,0,0,0,English,5,0,Chrome,Windows,720,1280,6.918433333333334,
122,all,congruent_female,Illinois.,0,0,stunt double,Lauren,none,1,649,stunt double_congruent_female,10,5,43,,I liked the word-by-word part,2,2,Female,100,0,0,0,0,100,100,100,100,0,0,0,0,English,5,0,Chrome,Windows,720,1280,6.918433333333334,
122,all,congruent_female,She,0,0,stunt double,Lauren,none,1,455,stunt double_congruent_female,10,6,43,,I liked the word-by-word part,2,2,Female,100,0,0,0,0,100,100,100,100,0,0,0,0,English,5,0,Chrome,Windows,720,1280,6.918433333333334,
122,all,congruent_female,likes,0,0,stunt double,Lauren,none,1,344,stunt double_congruent_female,10,7,43,,I liked the word-by-word part,2,2,Female,100,0,0,0,0,100,100,100,100,0,0,0,0,English,5,0,Chrome,Windows,720,1280,6.918433333333334,
122,all,congruent_female,writing.,0,0,stunt double,Lauren,none,1,949,stunt double_congruent_female,10,8,43,,I liked the word-by-word part,2,2,Female,100,0,0,0,0,100,100,100,100,0,0,0,0,English,5,0,Chrome,Windows,720,1280,6.918433333333334,
122,all,congruent_female,Elizabeth,0,0,businessperson,Elizabeth,none,1,383,businessperson_congruent_female,11,0,43,,I liked the word-by-word part,2,2,Female,100,0,0,0,0,100,100,100,100,0,0,0,0,English,5,0,Chrome,Windows,720,1280,6.918433333333334,
122,all,congruent_female,is,0,0,businessperson,Elizabeth,none,1,400,businessperson_congruent_female,11,1,43,,I liked the word-by-word part,2,2,Female,100,0,0,0,0,100,100,100,100,0,0,0,0,English,5,0,Chrome,Windows,720,1280,6.918433333333334,
122,all,congruent_female,a,0,0,businessperson,Elizabeth,none,1,368,businessperson_congruent_female,11,2,43,,I liked the word-by-word part,2,2,Female,100,0,0,0,0,100,100,100,100,0,0,0,0,English,5,0,Chrome,Windows,720,1280,6.918433333333334,
122,all,congruent_female,businesswoman,0,0,businessperson,Elizabeth,critical,1,1304,businessperson_congruent_female,11,3,43,,I liked the word-by-word part,2,2,Female,100,0,0,0,0,100,100,100,100,0,0,0,0,English,5,0,Chrome,Windows,720,1280,6.918433333333334,
122,all,congruent_female,from,0,0,businessperson,Elizabeth,none,1,400,businessperson_congruent_female,11,4,43,,I liked the word-by-word part,2,2,Female,100,0,0,0,0,100,100,100,100,0,0,0,0,English,5,0,Chrome,Windows,720,1280,6.918433333333334,
122,all,congruent_female,South Dakota.,0,0,businessperson,Elizabeth,none,1,672,businessperson_congruent_female,11,5,43,,I liked the word-by-word part,2,2,Female,100,0,0,0,0,100,100,100,100,0,0,0,0,English,5,0,Chrome,Windows,720,1280,6.918433333333334,
122,all,congruent_female,She,0,0,businessperson,Elizabeth,none,1,288,businessperson_congruent_female,11,6,43,,I liked the word-by-word part,2,2,Female,100,0,0,0,0,100,100,100,100,0,0,0,0,English,5,0,Chrome,Windows,720,1280,6.918433333333334,
122,all,congruent_female,likes,0,0,businessperson,Elizabeth,none,1,272,businessperson_congruent_female,11,7,43,,I liked the word-by-word part,2,2,Female,100,0,0,0,0,100,100,100,100,0,0,0,0,English,5,0,Chrome,Windows,720,1280,6.918433333333334,
122,all,congruent_female,reading.,0,0,businessperson,Elizabeth,none,1,665,businessperson_congruent_female,11,8,43,,I liked the word-by-word part,2,2,Female,100,0,0,0,0,100,100,100,100,0,0,0,0,English,5,0,Chrome,Windows,720,1280,6.918433333333334,
122,all,congruent_male,William,0,0,police officer,William,none,1,408,police officer_congruent_male,12,0,43,,I liked the word-by-word part,2,2,Female,100,0,0,0,0,100,100,100,100,0,0,0,0,English,5,0,Chrome,Windows,720,1280,6.918433333333334,
122,all,congruent_male,is,0,0,police officer,William,none,1,368,police officer_congruent_male,12,1,43,,I liked the word-by-word part,2,2,Female,100,0,0,0,0,100,100,100,100,0,0,0,0,English,5,0,Chrome,Windows,720,1280,6.918433333333334,
122,all,congruent_male,a,0,0,police officer,William,none,1,368,police officer_congruent_male,12,2,43,,I liked the word-by-word part,2,2,Female,100,0,0,0,0,100,100,100,100,0,0,0,0,English,5,0,Chrome,Windows,720,1280,6.918433333333334,
122,all,congruent_male,policeman,0,0,police officer,William,critical,1,496,police officer_congruent_male,12,3,43,,I liked the word-by-word part,2,2,Female,100,0,0,0,0,100,100,100,100,0,0,0,0,English,5,0,Chrome,Windows,720,1280,6.918433333333334,
122,all,congruent_male,from,0,0,police officer,William,none,1,385,police officer_congruent_male,12,4,43,,I liked the word-by-word part,2,2,Female,100,0,0,0,0,100,100,100,100,0,0,0,0,English,5,0,Chrome,Windows,720,1280,6.918433333333334,
122,all,congruent_male,Nebraska.,0,0,police officer,William,none,1,695,police officer_congruent_male,12,5,43,,I liked the word-by-word part,2,2,Female,100,0,0,0,0,100,100,100,100,0,0,0,0,English,5,0,Chrome,Windows,720,1280,6.918433333333334,
122,all,congruent_male,He,0,0,police officer,William,none,1,472,police officer_congruent_male,12,6,43,,I liked the word-by-word part,2,2,Female,100,0,0,0,0,100,100,100,100,0,0,0,0,English,5,0,Chrome,Windows,720,1280,6.918433333333334,
122,all,congruent_male,likes,0,0,police officer,William,none,1,272,police officer_congruent_male,12,7,43,,I liked the word-by-word part,2,2,Female,100,0,0,0,0,100,100,100,100,0,0,0,0,English,5,0,Chrome,Windows,720,1280,6.918433333333334,
122,all,congruent_male,dancing.,0,0,police officer,William,none,1,848,police officer_congruent_male,12,8,43,,I liked the word-by-word part,2,2,Female,100,0,0,0,0,100,100,100,100,0,0,0,0,English,5,0,Chrome,Windows,720,1280,6.918433333333334,
122,all,neutral_male,Austin,0,0,craftsperson,Austin,none,1,406,_neutral_male,13,0,43,,I liked the word-by-word part,2,2,Female,100,0,0,0,0,100,100,100,100,0,0,0,0,English,5,0,Chrome,Windows,720,1280,6.918433333333334,
122,all,neutral_male,is,0,0,craftsperson,Austin,none,1,385,_neutral_male,13,1,43,,I liked the word-by-word part,2,2,Female,100,0,0,0,0,100,100,100,100,0,0,0,0,English,5,0,Chrome,Windows,720,1280,6.918433333333334,
122,all,neutral_male,a,0,0,craftsperson,Austin,none,1,415,_neutral_male,13,2,43,,I liked the word-by-word part,2,2,Female,100,0,0,0,0,100,100,100,100,0,0,0,0,English,5,0,Chrome,Windows,720,1280,6.918433333333334,
122,all,neutral_male,craftsperson,0,0,craftsperson,Austin,critical,1,977,_neutral_male,13,3,43,,I liked the word-by-word part,2,2,Female,100,0,0,0,0,100,100,100,100,0,0,0,0,English,5,0,Chrome,Windows,720,1280,6.918433333333334,
122,all,neutral_male,from,0,0,craftsperson,Austin,none,1,727,_neutral_male,13,4,43,,I liked the word-by-word part,2,2,Female,100,0,0,0,0,100,100,100,100,0,0,0,0,English,5,0,Chrome,Windows,720,1280,6.918433333333334,
122,all,neutral_male,New Mexico.,0,0,craftsperson,Austin,none,1,1152,_neutral_male,13,5,43,,I liked the word-by-word part,2,2,Female,100,0,0,0,0,100,100,100,100,0,0,0,0,English,5,0,Chrome,Windows,720,1280,6.918433333333334,
122,all,neutral_male,He,0,0,craftsperson,Austin,none,1,384,_neutral_male,13,6,43,,I liked the word-by-word part,2,2,Female,100,0,0,0,0,100,100,100,100,0,0,0,0,English,5,0,Chrome,Windows,720,1280,6.918433333333334,
122,all,neutral_male,likes,0,0,craftsperson,Austin,none,1,248,_neutral_male,13,7,43,,I liked the word-by-word part,2,2,Female,100,0,0,0,0,100,100,100,100,0,0,0,0,English,5,0,Chrome,Windows,720,1280,6.918433333333334,
122,all,neutral_male,dancing.,0,0,craftsperson,Austin,none,1,520,_neutral_male,13,8,43,,I liked the word-by-word part,2,2,Female,100,0,0,0,0,100,100,100,100,0,0,0,0,English,5,0,Chrome,Windows,720,1280,6.918433333333334,
122,all,neutral_male,Christopher,0,0,hunter,Christopher,none,1,489,_neutral_male,14,0,43,,I liked the word-by-word part,2,2,Female,100,0,0,0,0,100,100,100,100,0,0,0,0,English,5,0,Chrome,Windows,720,1280,6.918433333333334,
122,all,neutral_male,is,0,0,hunter,Christopher,none,1,551,_neutral_male,14,1,43,,I liked the word-by-word part,2,2,Female,100,0,0,0,0,100,100,100,100,0,0,0,0,English,5,0,Chrome,Windows,720,1280,6.918433333333334,
122,all,neutral_male,a,0,0,hunter,Christopher,none,1,720,_neutral_male,14,2,43,,I liked the word-by-word part,2,2,Female,100,0,0,0,0,100,100,100,100,0,0,0,0,English,5,0,Chrome,Windows,720,1280,6.918433333333334,
122,all,neutral_male,hunter,0,0,hunter,Christopher,critical,1,960,_neutral_male,14,3,43,,I liked the word-by-word part,2,2,Female,100,0,0,0,0,100,100,100,100,0,0,0,0,English,5,0,Chrome,Windows,720,1280,6.918433333333334,
122,all,neutral_male,from,0,0,hunter,Christopher,none,1,504,_neutral_male,14,4,43,,I liked the word-by-word part,2,2,Female,100,0,0,0,0,100,100,100,100,0,0,0,0,English,5,0,Chrome,Windows,720,1280,6.918433333333334,
122,all,neutral_male,Oklahoma.,0,0,hunter,Christopher,none,1,1336,_neutral_male,14,5,43,,I liked the word-by-word part,2,2,Female,100,0,0,0,0,100,100,100,100,0,0,0,0,English,5,0,Chrome,Windows,720,1280,6.918433333333334,
122,all,neutral_male,He,0,0,hunter,Christopher,none,1,440,_neutral_male,14,6,43,,I liked the word-by-word part,2,2,Female,100,0,0,0,0,100,100,100,100,0,0,0,0,English,5,0,Chrome,Windows,720,1280,6.918433333333334,
122,all,neutral_male,likes,0,0,hunter,Christopher,none,1,336,_neutral_male,14,7,43,,I liked the word-by-word part,2,2,Female,100,0,0,0,0,100,100,100,100,0,0,0,0,English,5,0,Chrome,Windows,720,1280,6.918433333333334,
122,all,neutral_male,dancing.,0,0,hunter,Christopher,none,1,768,_neutral_male,14,8,43,,I liked the word-by-word part,2,2,Female,100,0,0,0,0,100,100,100,100,0,0,0,0,English,5,0,Chrome,Windows,720,1280,6.918433333333334,
122,all,neutral_female,Hannah,0,0,crewmember,Hannah,none,1,735,crewmember_neutral_female,15,0,43,,I liked the word-by-word part,2,2,Female,100,0,0,0,0,100,100,100,100,0,0,0,0,English,5,0,Chrome,Windows,720,1280,6.918433333333334,
122,all,neutral_female,is,0,0,crewmember,Hannah,none,1,736,crewmember_neutral_female,15,1,43,,I liked the word-by-word part,2,2,Female,100,0,0,0,0,100,100,100,100,0,0,0,0,English,5,0,Chrome,Windows,720,1280,6.918433333333334,
122,all,neutral_female,a,0,0,crewmember,Hannah,none,1,496,crewmember_neutral_female,15,2,43,,I liked the word-by-word part,2,2,Female,100,0,0,0,0,100,100,100,100,0,0,0,0,English,5,0,Chrome,Windows,720,1280,6.918433333333334,
122,all,neutral_female,crewmember,0,0,crewmember,Hannah,none,1,466,crewmember_neutral_female,15,3,43,,I liked the word-by-word part,2,2,Female,100,0,0,0,0,100,100,100,100,0,0,0,0,English,5,0,Chrome,Windows,720,1280,6.918433333333334,
122,all,neutral_female,from,0,0,crewmember,Hannah,none,1,646,crewmember_neutral_female,15,4,43,,I liked the word-by-word part,2,2,Female,100,0,0,0,0,100,100,100,100,0,0,0,0,English,5,0,Chrome,Windows,720,1280,6.918433333333334,
122,all,neutral_female,Kentucky.,0,0,crewmember,Hannah,none,1,705,crewmember_neutral_female,15,5,43,,I liked the word-by-word part,2,2,Female,100,0,0,0,0,100,100,100,100,0,0,0,0,English,5,0,Chrome,Windows,720,1280,6.918433333333334,
122,all,neutral_female,She,0,0,crewmember,Hannah,none,1,600,crewmember_neutral_female,15,6,43,,I liked the word-by-word part,2,2,Female,100,0,0,0,0,100,100,100,100,0,0,0,0,English,5,0,Chrome,Windows,720,1280,6.918433333333334,
122,all,neutral_female,likes,0,0,crewmember,Hannah,none,1,631,crewmember_neutral_female,15,7,43,,I liked the word-by-word part,2,2,Female,100,0,0,0,0,100,100,100,100,0,0,0,0,English,5,0,Chrome,Windows,720,1280,6.918433333333334,
122,all,neutral_female,walking.,0,0,crewmember,Hannah,none,1,728,crewmember_neutral_female,15,8,43,,I liked the word-by-word part,2,2,Female,100,0,0,0,0,100,100,100,100,0,0,0,0,English,5,0,Chrome,Windows,720,1280,6.918433333333334,
122,all,neutral_male,Joseph,0,0,meteorologist,Joseph,none,1,409,_neutral_male,16,0,43,,I liked the word-by-word part,2,2,Female,100,0,0,0,0,100,100,100,100,0,0,0,0,English,5,0,Chrome,Windows,720,1280,6.918433333333334,
122,all,neutral_male,is,0,0,meteorologist,Joseph,none,1,350,_neutral_male,16,1,43,,I liked the word-by-word part,2,2,Female,100,0,0,0,0,100,100,100,100,0,0,0,0,English,5,0,Chrome,Windows,720,1280,6.918433333333334,
122,all,neutral_male,a,0,0,meteorologist,Joseph,none,1,520,_neutral_male,16,2,43,,I liked the word-by-word part,2,2,Female,100,0,0,0,0,100,100,100,100,0,0,0,0,English,5,0,Chrome,Windows,720,1280,6.918433333333334,
122,all,neutral_male,meteorologist,0,0,meteorologist,Joseph,critical,1,832,_neutral_male,16,3,43,,I liked the word-by-word part,2,2,Female,100,0,0,0,0,100,100,100,100,0,0,0,0,English,5,0,Chrome,Windows,720,1280,6.918433333333334,
122,all,neutral_male,from,0,0,meteorologist,Joseph,none,1,568,_neutral_male,16,4,43,,I liked the word-by-word part,2,2,Female,100,0,0,0,0,100,100,100,100,0,0,0,0,English,5,0,Chrome,Windows,720,1280,6.918433333333334,
122,all,neutral_male,Kansas.,0,0,meteorologist,Joseph,none,1,1009,_neutral_male,16,5,43,,I liked the word-by-word part,2,2,Female,100,0,0,0,0,100,100,100,100,0,0,0,0,English,5,0,Chrome,Windows,720,1280,6.918433333333334,
122,all,neutral_male,He,0,0,meteorologist,Joseph,none,1,583,_neutral_male,16,6,43,,I liked the word-by-word part,2,2,Female,100,0,0,0,0,100,100,100,100,0,0,0,0,English,5,0,Chrome,Windows,720,1280,6.918433333333334,
122,all,neutral_male,likes,0,0,meteorologist,Joseph,none,1,352,_neutral_male,16,7,43,,I liked the word-by-word part,2,2,Female,100,0,0,0,0,100,100,100,100,0,0,0,0,English,5,0,Chrome,Windows,720,1280,6.918433333333334,
122,all,neutral_male,cycling.,0,0,meteorologist,Joseph,none,1,600,_neutral_male,16,8,43,,I liked the word-by-word part,2,2,Female,100,0,0,0,0,100,100,100,100,0,0,0,0,English,5,0,Chrome,Windows,720,1280,6.918433333333334,
122,all,congruent_female,Samantha,0,0,congressperson,Samantha,none,1,575,congressperson_congruent_female,17,0,43,,I liked the word-by-word part,2,2,Female,100,0,0,0,0,100,100,100,100,0,0,0,0,English,5,0,Chrome,Windows,720,1280,6.918433333333334,
122,all,congruent_female,is,0,0,congressperson,Samantha,none,1,432,congressperson_congruent_female,17,1,43,,I liked the word-by-word part,2,2,Female,100,0,0,0,0,100,100,100,100,0,0,0,0,English,5,0,Chrome,Windows,720,1280,6.918433333333334,
122,all,congruent_female,a,0,0,congressperson,Samantha,none,1,472,congressperson_congruent_female,17,2,43,,I liked the word-by-word part,2,2,Female,100,0,0,0,0,100,100,100,100,0,0,0,0,English,5,0,Chrome,Windows,720,1280,6.918433333333334,
122,all,congruent_female,congresswoman,0,0,congressperson,Samantha,critical,1,792,congressperson_congruent_female,17,3,43,,I liked the word-by-word part,2,2,Female,100,0,0,0,0,100,100,100,100,0,0,0,0,English,5,0,Chrome,Windows,720,1280,6.918433333333334,
122,all,congruent_female,from,0,0,congressperson,Samantha,none,1,584,congressperson_congruent_female,17,4,43,,I liked the word-by-word part,2,2,Female,100,0,0,0,0,100,100,100,100,0,0,0,0,English,5,0,Chrome,Windows,720,1280,6.918433333333334,
122,all,congruent_female,Indiana.,0,0,congressperson,Samantha,none,1,1528,congressperson_congruent_female,17,5,43,,I liked the word-by-word part,2,2,Female,100,0,0,0,0,100,100,100,100,0,0,0,0,English,5,0,Chrome,Windows,720,1280,6.918433333333334,
122,all,congruent_female,She,0,0,congressperson,Samantha,none,1,449,congressperson_congruent_female,17,6,43,,I liked the word-by-word part,2,2,Female,100,0,0,0,0,100,100,100,100,0,0,0,0,English,5,0,Chrome,Windows,720,1280,6.918433333333334,
122,all,congruent_female,likes,0,0,congressperson,Samantha,none,1,383,congressperson_congruent_female,17,7,43,,I liked the word-by-word part,2,2,Female,100,0,0,0,0,100,100,100,100,0,0,0,0,English,5,0,Chrome,Windows,720,1280,6.918433333333334,
122,all,congruent_female,reading.,0,0,congressperson,Samantha,none,1,488,congressperson_congruent_female,17,8,43,,I liked the word-by-word part,2,2,Female,100,0,0,0,0,100,100,100,100,0,0,0,0,English,5,0,Chrome,Windows,720,1280,6.918433333333334,
122,all,neutral_female,Sarah,0,0,actor,Sarah,none,1,423,actor_neutral_female,18,0,43,,I liked the word-by-word part,2,2,Female,100,0,0,0,0,100,100,100,100,0,0,0,0,English,5,0,Chrome,Windows,720,1280,6.918433333333334,
122,all,neutral_female,is,0,0,actor,Sarah,none,1,384,actor_neutral_female,18,1,43,,I liked the word-by-word part,2,2,Female,100,0,0,0,0,100,100,100,100,0,0,0,0,English,5,0,Chrome,Windows,720,1280,6.918433333333334,
122,all,neutral_female,an,0,0,actor,Sarah,none,1,449,actor_neutral_female,18,2,43,,I liked the word-by-word part,2,2,Female,100,0,0,0,0,100,100,100,100,0,0,0,0,English,5,0,Chrome,Windows,720,1280,6.918433333333334,
122,all,neutral_female,actor,0,0,actor,Sarah,critical,1,592,actor_neutral_female,18,3,43,,I liked the word-by-word part,2,2,Female,100,0,0,0,0,100,100,100,100,0,0,0,0,English,5,0,Chrome,Windows,720,1280,6.918433333333334,
122,all,neutral_female,from,0,0,actor,Sarah,none,1,352,actor_neutral_female,18,4,43,,I liked the word-by-word part,2,2,Female,100,0,0,0,0,100,100,100,100,0,0,0,0,English,5,0,Chrome,Windows,720,1280,6.918433333333334,
122,all,neutral_female,New Hampshire.,0,0,actor,Sarah,none,1,1064,actor_neutral_female,18,5,43,,I liked the word-by-word part,2,2,Female,100,0,0,0,0,100,100,100,100,0,0,0,0,English,5,0,Chrome,Windows,720,1280,6.918433333333334,
122,all,neutral_female,She,0,0,actor,Sarah,none,1,375,actor_neutral_female,18,6,43,,I liked the word-by-word part,2,2,Female,100,0,0,0,0,100,100,100,100,0,0,0,0,English,5,0,Chrome,Windows,720,1280,6.918433333333334,
122,all,neutral_female,likes,0,0,actor,Sarah,none,1,312,actor_neutral_female,18,7,43,,I liked the word-by-word part,2,2,Female,100,0,0,0,0,100,100,100,100,0,0,0,0,English,5,0,Chrome,Windows,720,1280,6.918433333333334,
122,all,neutral_female,reading.,0,0,actor,Sarah,none,1,1001,actor_neutral_female,18,8,43,,I liked the word-by-word part,2,2,Female,100,0,0,0,0,100,100,100,100,0,0,0,0,English,5,0,Chrome,Windows,720,1280,6.918433333333334,
122,all,congruent_male,Michael,0,0,heir,Michael,none,1,495,heir_congruent_male,19,0,43,,I liked the word-by-word part,2,2,Female,100,0,0,0,0,100,100,100,100,0,0,0,0,English,5,0,Chrome,Windows,720,1280,6.918433333333334,
122,all,congruent_male,is,0,0,heir,Michael,none,1,425,heir_congruent_male,19,1,43,,I liked the word-by-word part,2,2,Female,100,0,0,0,0,100,100,100,100,0,0,0,0,English,5,0,Chrome,Windows,720,1280,6.918433333333334,
122,all,congruent_male,an,0,0,heir,Michael,none,1,487,heir_congruent_male,19,2,43,,I liked the word-by-word part,2,2,Female,100,0,0,0,0,100,100,100,100,0,0,0,0,English,5,0,Chrome,Windows,720,1280,6.918433333333334,
122,all,congruent_male,heir,0,0,heir,Michael,critical,1,873,heir_congruent_male,19,3,43,,I liked the word-by-word part,2,2,Female,100,0,0,0,0,100,100,100,100,0,0,0,0,English,5,0,Chrome,Windows,720,1280,6.918433333333334,
122,all,congruent_male,from,0,0,heir,Michael,none,1,544,heir_congruent_male,19,4,43,,I liked the word-by-word part,2,2,Female,100,0,0,0,0,100,100,100,100,0,0,0,0,English,5,0,Chrome,Windows,720,1280,6.918433333333334,
122,all,congruent_male,Wisconsin.,0,0,heir,Michael,none,1,703,heir_congruent_male,19,5,43,,I liked the word-by-word part,2,2,Female,100,0,0,0,0,100,100,100,100,0,0,0,0,English,5,0,Chrome,Windows,720,1280,6.918433333333334,
122,all,congruent_male,He,0,0,heir,Michael,none,1,537,heir_congruent_male,19,6,43,,I liked the word-by-word part,2,2,Female,100,0,0,0,0,100,100,100,100,0,0,0,0,English,5,0,Chrome,Windows,720,1280,6.918433333333334,
122,all,congruent_male,likes,0,0,heir,Michael,none,1,496,heir_congruent_male,19,7,43,,I liked the word-by-word part,2,2,Female,100,0,0,0,0,100,100,100,100,0,0,0,0,English,5,0,Chrome,Windows,720,1280,6.918433333333334,
122,all,congruent_male,running.,0,0,heir,Michael,none,1,920,heir_congruent_male,19,8,43,,I liked the word-by-word part,2,2,Female,100,0,0,0,0,100,100,100,100,0,0,0,0,English,5,0,Chrome,Windows,720,1280,6.918433333333334,
122,all,congruent_male,Matthew,0,0,villain,Matthew,none,1,431,villain_congruent_male,20,0,43,,I liked the word-by-word part,2,2,Female,100,0,0,0,0,100,100,100,100,0,0,0,0,English,5,0,Chrome,Windows,720,1280,6.918433333333334,
122,all,congruent_male,is,0,0,villain,Matthew,none,1,272,villain_congruent_male,20,1,43,,I liked the word-by-word part,2,2,Female,100,0,0,0,0,100,100,100,100,0,0,0,0,English,5,0,Chrome,Windows,720,1280,6.918433333333334,
122,all,congruent_male,a,0,0,villain,Matthew,none,1,305,villain_congruent_male,20,2,43,,I liked the word-by-word part,2,2,Female,100,0,0,0,0,100,100,100,100,0,0,0,0,English,5,0,Chrome,Windows,720,1280,6.918433333333334,
122,all,congruent_male,villain,0,0,villain,Matthew,critical,1,335,villain_congruent_male,20,3,43,,I liked the word-by-word part,2,2,Female,100,0,0,0,0,100,100,100,100,0,0,0,0,English,5,0,Chrome,Windows,720,1280,6.918433333333334,
122,all,congruent_male,from,0,0,villain,Matthew,none,1,336,villain_congruent_male,20,4,43,,I liked the word-by-word part,2,2,Female,100,0,0,0,0,100,100,100,100,0,0,0,0,English,5,0,Chrome,Windows,720,1280,6.918433333333334,
122,all,congruent_male,Utah.,0,0,villain,Matthew,none,1,1240,villain_congruent_male,20,5,43,,I liked the word-by-word part,2,2,Female,100,0,0,0,0,100,100,100,100,0,0,0,0,English,5,0,Chrome,Windows,720,1280,6.918433333333334,
122,all,congruent_male,He,0,0,villain,Matthew,none,1,336,villain_congruent_male,20,6,43,,I liked the word-by-word part,2,2,Female,100,0,0,0,0,100,100,100,100,0,0,0,0,English,5,0,Chrome,Windows,720,1280,6.918433333333334,
122,all,congruent_male,likes,0,0,villain,Matthew,none,1,305,villain_congruent_male,20,7,43,,I liked the word-by-word part,2,2,Female,100,0,0,0,0,100,100,100,100,0,0,0,0,English,5,0,Chrome,Windows,720,1280,6.918433333333334,
122,all,congruent_male,writing.,0,0,villain,Matthew,none,1,584,villain_congruent_male,20,8,43,,I liked the word-by-word part,2,2,Female,100,0,0,0,0,100,100,100,100,0,0,0,0,English,5,0,Chrome,Windows,720,1280,6.918433333333334,
121,all,neutral_female,Brittany,0,0,performer,Brittany,none,1,804,example,0,0,21,Yes,,3,2,Female,92,0,0,0,0,100,100,100,100,5,0,0,0,english,3,1,Chrome,Mac,900,1440,4.558066666666667,
121,all,neutral_female,is,0,0,performer,Brittany,none,1,776,example,0,1,21,Yes,,3,2,Female,92,0,0,0,0,100,100,100,100,5,0,0,0,english,3,1,Chrome,Mac,900,1440,4.558066666666667,
121,all,neutral_female,a,0,0,performer,Brittany,none,1,496,example,0,2,21,Yes,,3,2,Female,92,0,0,0,0,100,100,100,100,5,0,0,0,english,3,1,Chrome,Mac,900,1440,4.558066666666667,
121,all,neutral_female,performer,0,0,performer,Brittany,critical,1,561,example,0,3,21,Yes,,3,2,Female,92,0,0,0,0,100,100,100,100,5,0,0,0,english,3,1,Chrome,Mac,900,1440,4.558066666666667,
121,all,neutral_female,from,0,0,performer,Brittany,none,1,465,example,0,4,21,Yes,,3,2,Female,92,0,0,0,0,100,100,100,100,5,0,0,0,english,3,1,Chrome,Mac,900,1440,4.558066666666667,
121,all,neutral_female,South Korea.,0,0,performer,Brittany,none,1,545,example,0,5,21,Yes,,3,2,Female,92,0,0,0,0,100,100,100,100,5,0,0,0,english,3,1,Chrome,Mac,900,1440,4.558066666666667,
121,all,neutral_female,She,0,0,performer,Brittany,none,1,765,example,0,6,21,Yes,,3,2,Female,92,0,0,0,0,100,100,100,100,5,0,0,0,english,3,1,Chrome,Mac,900,1440,4.558066666666667,
121,all,neutral_female,likes,0,0,performer,Brittany,none,1,438,example,0,7,21,Yes,,3,2,Female,92,0,0,0,0,100,100,100,100,5,0,0,0,english,3,1,Chrome,Mac,900,1440,4.558066666666667,
121,all,neutral_female,cycling.,0,0,performer,Brittany,none,1,352,example,0,8,21,Yes,,3,2,Female,92,0,0,0,0,100,100,100,100,5,0,0,0,english,3,1,Chrome,Mac,900,1440,4.558066666666667,
121,all,neutral_male,Andrew,0,0,stunt double,Andrew,none,1,619,_neutral_male,1,0,21,Yes,,3,2,Female,92,0,0,0,0,100,100,100,100,5,0,0,0,english,3,1,Chrome,Mac,900,1440,4.558066666666667,
121,all,neutral_male,is,0,0,stunt double,Andrew,none,1,480,_neutral_male,1,1,21,Yes,,3,2,Female,92,0,0,0,0,100,100,100,100,5,0,0,0,english,3,1,Chrome,Mac,900,1440,4.558066666666667,
121,all,neutral_male,a,0,0,stunt double,Andrew,none,1,529,_neutral_male,1,2,21,Yes,,3,2,Female,92,0,0,0,0,100,100,100,100,5,0,0,0,english,3,1,Chrome,Mac,900,1440,4.558066666666667,
121,all,neutral_male,stunt double,0,0,stunt double,Andrew,critical,1,800,_neutral_male,1,3,21,Yes,,3,2,Female,92,0,0,0,0,100,100,100,100,5,0,0,0,english,3,1,Chrome,Mac,900,1440,4.558066666666667,
121,all,neutral_male,from,0,0,stunt double,Andrew,none,1,459,_neutral_male,1,4,21,Yes,,3,2,Female,92,0,0,0,0,100,100,100,100,5,0,0,0,english,3,1,Chrome,Mac,900,1440,4.558066666666667,
121,all,neutral_male,Illinois.,0,0,stunt double,Andrew,none,1,1327,_neutral_male,1,5,21,Yes,,3,2,Female,92,0,0,0,0,100,100,100,100,5,0,0,0,english,3,1,Chrome,Mac,900,1440,4.558066666666667,
121,all,neutral_male,He,0,0,stunt double,Andrew,none,1,707,_neutral_male,1,6,21,Yes,,3,2,Female,92,0,0,0,0,100,100,100,100,5,0,0,0,english,3,1,Chrome,Mac,900,1440,4.558066666666667,
121,all,neutral_male,likes,0,0,stunt double,Andrew,none,1,436,_neutral_male,1,7,21,Yes,,3,2,Female,92,0,0,0,0,100,100,100,100,5,0,0,0,english,3,1,Chrome,Mac,900,1440,4.558066666666667,
121,all,neutral_male,writing.,0,0,stunt double,Andrew,none,1,543,_neutral_male,1,8,21,Yes,,3,2,Female,92,0,0,0,0,100,100,100,100,5,0,0,0,english,3,1,Chrome,Mac,900,1440,4.558066666666667,
121,all,congruent_male,Nicholas,0,0,businessperson,Nicholas,none,1,609,businessperson_congruent_male,2,0,21,Yes,,3,2,Female,92,0,0,0,0,100,100,100,100,5,0,0,0,english,3,1,Chrome,Mac,900,1440,4.558066666666667,
121,all,congruent_male,is,0,0,businessperson,Nicholas,none,1,556,businessperson_congruent_male,2,1,21,Yes,,3,2,Female,92,0,0,0,0,100,100,100,100,5,0,0,0,english,3,1,Chrome,Mac,900,1440,4.558066666666667,
121,all,congruent_male,a,0,0,businessperson,Nicholas,none,1,458,businessperson_congruent_male,2,2,21,Yes,,3,2,Female,92,0,0,0,0,100,100,100,100,5,0,0,0,english,3,1,Chrome,Mac,900,1440,4.558066666666667,
121,all,congruent_male,businessman,0,0,businessperson,Nicholas,critical,1,820,businessperson_congruent_male,2,3,21,Yes,,3,2,Female,92,0,0,0,0,100,100,100,100,5,0,0,0,english,3,1,Chrome,Mac,900,1440,4.558066666666667,
121,all,congruent_male,from,0,0,businessperson,Nicholas,none,1,978,businessperson_congruent_male,2,4,21,Yes,,3,2,Female,92,0,0,0,0,100,100,100,100,5,0,0,0,english,3,1,Chrome,Mac,900,1440,4.558066666666667,
121,all,congruent_male,South Dakota.,0,0,businessperson,Nicholas,none,1,799,businessperson_congruent_male,2,5,21,Yes,,3,2,Female,92,0,0,0,0,100,100,100,100,5,0,0,0,english,3,1,Chrome,Mac,900,1440,4.558066666666667,
121,all,congruent_male,He,0,0,businessperson,Nicholas,none,1,573,businessperson_congruent_male,2,6,21,Yes,,3,2,Female,92,0,0,0,0,100,100,100,100,5,0,0,0,english,3,1,Chrome,Mac,900,1440,4.558066666666667,
121,all,congruent_male,likes,0,0,businessperson,Nicholas,none,1,382,businessperson_congruent_male,2,7,21,Yes,,3,2,Female,92,0,0,0,0,100,100,100,100,5,0,0,0,english,3,1,Chrome,Mac,900,1440,4.558066666666667,
121,all,congruent_male,reading.,0,0,businessperson,Nicholas,none,1,471,businessperson_congruent_male,2,8,21,Yes,,3,2,Female,92,0,0,0,0,100,100,100,100,5,0,0,0,english,3,1,Chrome,Mac,900,1440,4.558066666666667,
121,all,neutral_male,Christopher,0,0,camera operator,Christopher,none,1,968,_neutral_male,3,0,21,Yes,,3,2,Female,92,0,0,0,0,100,100,100,100,5,0,0,0,english,3,1,Chrome,Mac,900,1440,4.558066666666667,
121,all,neutral_male,is,0,0,camera operator,Christopher,none,1,587,_neutral_male,3,1,21,Yes,,3,2,Female,92,0,0,0,0,100,100,100,100,5,0,0,0,english,3,1,Chrome,Mac,900,1440,4.558066666666667,
121,all,neutral_male,a,0,0,camera operator,Christopher,none,1,696,_neutral_male,3,2,21,Yes,,3,2,Female,92,0,0,0,0,100,100,100,100,5,0,0,0,english,3,1,Chrome,Mac,900,1440,4.558066666666667,
121,all,neutral_male,camera operator,0,0,camera operator,Christopher,critical,1,932,_neutral_male,3,3,21,Yes,,3,2,Female,92,0,0,0,0,100,100,100,100,5,0,0,0,english,3,1,Chrome,Mac,900,1440,4.558066666666667,
121,all,neutral_male,from,0,0,camera operator,Christopher,none,1,1234,_neutral_male,3,4,21,Yes,,3,2,Female,92,0,0,0,0,100,100,100,100,5,0,0,0,english,3,1,Chrome,Mac,900,1440,4.558066666666667,
121,all,neutral_male,North Dakota.,0,0,camera operator,Christopher,none,1,737,_neutral_male,3,5,21,Yes,,3,2,Female,92,0,0,0,0,100,100,100,100,5,0,0,0,english,3,1,Chrome,Mac,900,1440,4.558066666666667,
121,all,neutral_male,He,0,0,camera operator,Christopher,none,1,532,_neutral_male,3,6,21,Yes,,3,2,Female,92,0,0,0,0,100,100,100,100,5,0,0,0,english,3,1,Chrome,Mac,900,1440,4.558066666666667,
121,all,neutral_male,likes,0,0,camera operator,Christopher,none,1,436,_neutral_male,3,7,21,Yes,,3,2,Female,92,0,0,0,0,100,100,100,100,5,0,0,0,english,3,1,Chrome,Mac,900,1440,4.558066666666667,
121,all,neutral_male,walking.,0,0,camera operator,Christopher,none,1,486,_neutral_male,3,8,21,Yes,,3,2,Female,92,0,0,0,0,100,100,100,100,5,0,0,0,english,3,1,Chrome,Mac,900,1440,4.558066666666667,
121,all,neutral_male,Jacob,0,0,heir,Jacob,none,1,685,_neutral_male,4,0,21,Yes,,3,2,Female,92,0,0,0,0,100,100,100,100,5,0,0,0,english,3,1,Chrome,Mac,900,1440,4.558066666666667,
121,all,neutral_male,is,0,0,heir,Jacob,none,1,684,_neutral_male,4,1,21,Yes,,3,2,Female,92,0,0,0,0,100,100,100,100,5,0,0,0,english,3,1,Chrome,Mac,900,1440,4.558066666666667,
121,all,neutral_male,an,0,0,heir,Jacob,none,1,982,_neutral_male,4,2,21,Yes,,3,2,Female,92,0,0,0,0,100,100,100,100,5,0,0,0,english,3,1,Chrome,Mac,900,1440,4.558066666666667,
121,all,neutral_male,heir,0,0,heir,Jacob,critical,1,646,_neutral_male,4,3,21,Yes,,3,2,Female,92,0,0,0,0,100,100,100,100,5,0,0,0,english,3,1,Chrome,Mac,900,1440,4.558066666666667,
121,all,neutral_male,from,0,0,heir,Jacob,none,1,460,_neutral_male,4,4,21,Yes,,3,2,Female,92,0,0,0,0,100,100,100,100,5,0,0,0,english,3,1,Chrome,Mac,900,1440,4.558066666666667,
121,all,neutral_male,Wisconsin.,0,0,heir,Jacob,none,1,1189,_neutral_male,4,5,21,Yes,,3,2,Female,92,0,0,0,0,100,100,100,100,5,0,0,0,english,3,1,Chrome,Mac,900,1440,4.558066666666667,
121,all,neutral_male,He,0,0,heir,Jacob,none,1,477,_neutral_male,4,6,21,Yes,,3,2,Female,92,0,0,0,0,100,100,100,100,5,0,0,0,english,3,1,Chrome,Mac,900,1440,4.558066666666667,
121,all,neutral_male,likes,0,0,heir,Jacob,none,1,410,_neutral_male,4,7,21,Yes,,3,2,Female,92,0,0,0,0,100,100,100,100,5,0,0,0,english,3,1,Chrome,Mac,900,1440,4.558066666666667,
121,all,neutral_male,running.,0,0,heir,Jacob,none,1,441,_neutral_male,4,8,21,Yes,,3,2,Female,92,0,0,0,0,100,100,100,100,5,0,0,0,english,3,1,Chrome,Mac,900,1440,4.558066666666667,
121,all,congruent_female,Samantha,0,0,actor,Samantha,none,1,653,actor_congruent_female,5,0,21,Yes,,3,2,Female,92,0,0,0,0,100,100,100,100,5,0,0,0,english,3,1,Chrome,Mac,900,1440,4.558066666666667,
121,all,congruent_female,is,0,0,actor,Samantha,none,1,417,actor_congruent_female,5,1,21,Yes,,3,2,Female,92,0,0,0,0,100,100,100,100,5,0,0,0,english,3,1,Chrome,Mac,900,1440,4.558066666666667,
121,all,congruent_female,an,0,0,actor,Samantha,none,1,415,actor_congruent_female,5,2,21,Yes,,3,2,Female,92,0,0,0,0,100,100,100,100,5,0,0,0,english,3,1,Chrome,Mac,900,1440,4.558066666666667,
121,all,congruent_female,actress,0,0,actor,Samantha,critical,1,833,actor_congruent_female,5,3,21,Yes,,3,2,Female,92,0,0,0,0,100,100,100,100,5,0,0,0,english,3,1,Chrome,Mac,900,1440,4.558066666666667,
121,all,congruent_female,from,0,0,actor,Samantha,none,1,570,actor_congruent_female,5,4,21,Yes,,3,2,Female,92,0,0,0,0,100,100,100,100,5,0,0,0,english,3,1,Chrome,Mac,900,1440,4.558066666666667,
121,all,congruent_female,New Hampshire.,0,0,actor,Samantha,none,1,585,actor_congruent_female,5,5,21,Yes,,3,2,Female,92,0,0,0,0,100,100,100,100,5,0,0,0,english,3,1,Chrome,Mac,900,1440,4.558066666666667,
121,all,congruent_female,She,0,0,actor,Samantha,none,1,576,actor_congruent_female,5,6,21,Yes,,3,2,Female,92,0,0,0,0,100,100,100,100,5,0,0,0,english,3,1,Chrome,Mac,900,1440,4.558066666666667,
121,all,congruent_female,likes,0,0,actor,Samantha,none,1,398,actor_congruent_female,5,7,21,Yes,,3,2,Female,92,0,0,0,0,100,100,100,100,5,0,0,0,english,3,1,Chrome,Mac,900,1440,4.558066666666667,
121,all,congruent_female,reading.,0,0,actor,Samantha,none,1,485,actor_congruent_female,5,8,21,Yes,,3,2,Female,92,0,0,0,0,100,100,100,100,5,0,0,0,english,3,1,Chrome,Mac,900,1440,4.558066666666667,
121,all,neutral_male,John,0,0,firefighter,John,none,1,518,_neutral_male,6,0,21,Yes,,3,2,Female,92,0,0,0,0,100,100,100,100,5,0,0,0,english,3,1,Chrome,Mac,900,1440,4.558066666666667,
121,all,neutral_male,is,0,0,firefighter,John,none,1,448,_neutral_male,6,1,21,Yes,,3,2,Female,92,0,0,0,0,100,100,100,100,5,0,0,0,english,3,1,Chrome,Mac,900,1440,4.558066666666667,
121,all,neutral_male,a,0,0,firefighter,John,none,1,490,_neutral_male,6,2,21,Yes,,3,2,Female,92,0,0,0,0,100,100,100,100,5,0,0,0,english,3,1,Chrome,Mac,900,1440,4.558066666666667,
121,all,neutral_male,firefighter,0,0,firefighter,John,critical,1,550,_neutral_male,6,3,21,Yes,,3,2,Female,92,0,0,0,0,100,100,100,100,5,0,0,0,english,3,1,Chrome,Mac,900,1440,4.558066666666667,
121,all,neutral_male,from,0,0,firefighter,John,none,1,608,_neutral_male,6,4,21,Yes,,3,2,Female,92,0,0,0,0,100,100,100,100,5,0,0,0,english,3,1,Chrome,Mac,900,1440,4.558066666666667,
121,all,neutral_male,North Carolina.,0,0,firefighter,John,none,1,579,_neutral_male,6,5,21,Yes,,3,2,Female,92,0,0,0,0,100,100,100,100,5,0,0,0,english,3,1,Chrome,Mac,900,1440,4.558066666666667,
121,all,neutral_male,He,0,0,firefighter,John,none,1,789,_neutral_male,6,6,21,Yes,,3,2,Female,92,0,0,0,0,100,100,100,100,5,0,0,0,english,3,1,Chrome,Mac,900,1440,4.558066666666667,
121,all,neutral_male,likes,0,0,firefighter,John,none,1,476,_neutral_male,6,7,21,Yes,,3,2,Female,92,0,0,0,0,100,100,100,100,5,0,0,0,english,3,1,Chrome,Mac,900,1440,4.558066666666667,
121,all,neutral_male,cooking.,0,0,firefighter,John,none,1,461,_neutral_male,6,8,21,Yes,,3,2,Female,92,0,0,0,0,100,100,100,100,5,0,0,0,english,3,1,Chrome,Mac,900,1440,4.558066666666667,
121,all,neutral_male,Michael,0,0,congressperson,Michael,none,1,837,_neutral_male,7,0,21,Yes,,3,2,Female,92,0,0,0,0,100,100,100,100,5,0,0,0,english,3,1,Chrome,Mac,900,1440,4.558066666666667,
121,all,neutral_male,is,0,0,congressperson,Michael,none,1,534,_neutral_male,7,1,21,Yes,,3,2,Female,92,0,0,0,0,100,100,100,100,5,0,0,0,english,3,1,Chrome,Mac,900,1440,4.558066666666667,
121,all,neutral_male,a,0,0,congressperson,Michael,none,1,473,_neutral_male,7,2,21,Yes,,3,2,Female,92,0,0,0,0,100,100,100,100,5,0,0,0,english,3,1,Chrome,Mac,900,1440,4.558066666666667,
121,all,neutral_male,congressperson,0,0,congressperson,Michael,critical,1,1134,_neutral_male,7,3,21,Yes,,3,2,Female,92,0,0,0,0,100,100,100,100,5,0,0,0,english,3,1,Chrome,Mac,900,1440,4.558066666666667,
121,all,neutral_male,from,0,0,congressperson,Michael,none,1,493,_neutral_male,7,4,21,Yes,,3,2,Female,92,0,0,0,0,100,100,100,100,5,0,0,0,english,3,1,Chrome,Mac,900,1440,4.558066666666667,
121,all,neutral_male,Indiana.,0,0,congressperson,Michael,none,1,480,_neutral_male,7,5,21,Yes,,3,2,Female,92,0,0,0,0,100,100,100,100,5,0,0,0,english,3,1,Chrome,Mac,900,1440,4.558066666666667,
121,all,neutral_male,He,0,0,congressperson,Michael,none,1,446,_neutral_male,7,6,21,Yes,,3,2,Female,92,0,0,0,0,100,100,100,100,5,0,0,0,english,3,1,Chrome,Mac,900,1440,4.558066666666667,
121,all,neutral_male,likes,0,0,congressperson,Michael,none,1,428,_neutral_male,7,7,21,Yes,,3,2,Female,92,0,0,0,0,100,100,100,100,5,0,0,0,english,3,1,Chrome,Mac,900,1440,4.558066666666667,
121,all,neutral_male,reading.,0,0,congressperson,Michael,none,1,361,_neutral_male,7,8,21,Yes,,3,2,Female,92,0,0,0,0,100,100,100,100,5,0,0,0,english,3,1,Chrome,Mac,900,1440,4.558066666666667,
121,all,congruent_female,Hannah,0,0,foreperson,Hannah,none,1,648,foreperson_congruent_female,8,0,21,Yes,,3,2,Female,92,0,0,0,0,100,100,100,100,5,0,0,0,english,3,1,Chrome,Mac,900,1440,4.558066666666667,
121,all,congruent_female,is,0,0,foreperson,Hannah,none,1,509,foreperson_congruent_female,8,1,21,Yes,,3,2,Female,92,0,0,0,0,100,100,100,100,5,0,0,0,english,3,1,Chrome,Mac,900,1440,4.558066666666667,
121,all,congruent_female,a,0,0,foreperson,Hannah,none,1,431,foreperson_congruent_female,8,2,21,Yes,,3,2,Female,92,0,0,0,0,100,100,100,100,5,0,0,0,english,3,1,Chrome,Mac,900,1440,4.558066666666667,
121,all,congruent_female,forewoman,0,0,foreperson,Hannah,none,1,542,foreperson_congruent_female,8,3,21,Yes,,3,2,Female,92,0,0,0,0,100,100,100,100,5,0,0,0,english,3,1,Chrome,Mac,900,1440,4.558066666666667,
121,all,congruent_female,from,0,0,foreperson,Hannah,none,1,536,foreperson_congruent_female,8,4,21,Yes,,3,2,Female,92,0,0,0,0,100,100,100,100,5,0,0,0,english,3,1,Chrome,Mac,900,1440,4.558066666666667,
121,all,congruent_female,New York.,0,0,foreperson,Hannah,none,1,499,foreperson_congruent_female,8,5,21,Yes,,3,2,Female,92,0,0,0,0,100,100,100,100,5,0,0,0,english,3,1,Chrome,Mac,900,1440,4.558066666666667,
121,all,congruent_female,She,0,0,foreperson,Hannah,none,1,515,foreperson_congruent_female,8,6,21,Yes,,3,2,Female,92,0,0,0,0,100,100,100,100,5,0,0,0,english,3,1,Chrome,Mac,900,1440,4.558066666666667,
121,all,congruent_female,likes,0,0,foreperson,Hannah,none,1,469,foreperson_congruent_female,8,7,21,Yes,,3,2,Female,92,0,0,0,0,100,100,100,100,5,0,0,0,english,3,1,Chrome,Mac,900,1440,4.558066666666667,
121,all,congruent_female,cycling.,0,0,foreperson,Hannah,none,1,602,foreperson_congruent_female,8,8,21,Yes,,3,2,Female,92,0,0,0,0,100,100,100,100,5,0,0,0,english,3,1,Chrome,Mac,900,1440,4.558066666666667,
121,all,neutral_male,Joshua,0,0,anchor,Joshua,none,1,625,_neutral_male,9,0,21,Yes,,3,2,Female,92,0,0,0,0,100,100,100,100,5,0,0,0,english,3,1,Chrome,Mac,900,1440,4.558066666666667,
121,all,neutral_male,is,0,0,anchor,Joshua,none,1,431,_neutral_male,9,1,21,Yes,,3,2,Female,92,0,0,0,0,100,100,100,100,5,0,0,0,english,3,1,Chrome,Mac,900,1440,4.558066666666667,
121,all,neutral_male,an,0,0,anchor,Joshua,none,1,485,_neutral_male,9,2,21,Yes,,3,2,Female,92,0,0,0,0,100,100,100,100,5,0,0,0,english,3,1,Chrome,Mac,900,1440,4.558066666666667,
121,all,neutral_male,anchor,0,0,anchor,Joshua,critical,1,555,_neutral_male,9,3,21,Yes,,3,2,Female,92,0,0,0,0,100,100,100,100,5,0,0,0,english,3,1,Chrome,Mac,900,1440,4.558066666666667,
121,all,neutral_male,from,0,0,anchor,Joshua,none,1,547,_neutral_male,9,4,21,Yes,,3,2,Female,92,0,0,0,0,100,100,100,100,5,0,0,0,english,3,1,Chrome,Mac,900,1440,4.558066666666667,
121,all,neutral_male,Florida.,0,0,anchor,Joshua,none,1,525,_neutral_male,9,5,21,Yes,,3,2,Female,92,0,0,0,0,100,100,100,100,5,0,0,0,english,3,1,Chrome,Mac,900,1440,4.558066666666667,
121,all,neutral_male,He,0,0,anchor,Joshua,none,1,547,_neutral_male,9,6,21,Yes,,3,2,Female,92,0,0,0,0,100,100,100,100,5,0,0,0,english,3,1,Chrome,Mac,900,1440,4.558066666666667,
121,all,neutral_male,likes,0,0,anchor,Joshua,none,1,374,_neutral_male,9,7,21,Yes,,3,2,Female,92,0,0,0,0,100,100,100,100,5,0,0,0,english,3,1,Chrome,Mac,900,1440,4.558066666666667,
121,all,neutral_male,swimming.,0,0,anchor,Joshua,none,1,435,_neutral_male,9,8,21,Yes,,3,2,Female,92,0,0,0,0,100,100,100,100,5,0,0,0,english,3,1,Chrome,Mac,900,1440,4.558066666666667,
121,all,congruent_male,William,0,0,layperson,William,none,1,519,layperson_congruent_male,10,0,21,Yes,,3,2,Female,92,0,0,0,0,100,100,100,100,5,0,0,0,english,3,1,Chrome,Mac,900,1440,4.558066666666667,
121,all,congruent_male,is,0,0,layperson,William,none,1,422,layperson_congruent_male,10,1,21,Yes,,3,2,Female,92,0,0,0,0,100,100,100,100,5,0,0,0,english,3,1,Chrome,Mac,900,1440,4.558066666666667,
121,all,congruent_male,a,0,0,layperson,William,none,1,409,layperson_congruent_male,10,2,21,Yes,,3,2,Female,92,0,0,0,0,100,100,100,100,5,0,0,0,english,3,1,Chrome,Mac,900,1440,4.558066666666667,
121,all,congruent_male,layman,0,0,layperson,William,critical,1,443,layperson_congruent_male,10,3,21,Yes,,3,2,Female,92,0,0,0,0,100,100,100,100,5,0,0,0,english,3,1,Chrome,Mac,900,1440,4.558066666666667,
121,all,congruent_male,from,0,0,layperson,William,none,1,434,layperson_congruent_male,10,4,21,Yes,,3,2,Female,92,0,0,0,0,100,100,100,100,5,0,0,0,english,3,1,Chrome,Mac,900,1440,4.558066666666667,
121,all,congruent_male,Alabama.,0,0,layperson,William,none,1,526,layperson_congruent_male,10,5,21,Yes,,3,2,Female,92,0,0,0,0,100,100,100,100,5,0,0,0,english,3,1,Chrome,Mac,900,1440,4.558066666666667,
121,all,congruent_male,He,0,0,layperson,William,none,1,470,layperson_congruent_male,10,6,21,Yes,,3,2,Female,92,0,0,0,0,100,100,100,100,5,0,0,0,english,3,1,Chrome,Mac,900,1440,4.558066666666667,
121,all,congruent_male,likes,0,0,layperson,William,none,1,472,layperson_congruent_male,10,7,21,Yes,,3,2,Female,92,0,0,0,0,100,100,100,100,5,0,0,0,english,3,1,Chrome,Mac,900,1440,4.558066666666667,
121,all,congruent_male,surfing.,0,0,layperson,William,none,1,402,layperson_congruent_male,10,8,21,Yes,,3,2,Female,92,0,0,0,0,100,100,100,100,5,0,0,0,english,3,1,Chrome,Mac,900,1440,4.558066666666667,
121,all,neutral_female,Sarah,0,0,salesperson,Sarah,none,1,470,salesperson_neutral_female,11,0,21,Yes,,3,2,Female,92,0,0,0,0,100,100,100,100,5,0,0,0,english,3,1,Chrome,Mac,900,1440,4.558066666666667,
121,all,neutral_female,is,0,0,salesperson,Sarah,none,1,476,salesperson_neutral_female,11,1,21,Yes,,3,2,Female,92,0,0,0,0,100,100,100,100,5,0,0,0,english,3,1,Chrome,Mac,900,1440,4.558066666666667,
121,all,neutral_female,a,0,0,salesperson,Sarah,none,1,419,salesperson_neutral_female,11,2,21,Yes,,3,2,Female,92,0,0,0,0,100,100,100,100,5,0,0,0,english,3,1,Chrome,Mac,900,1440,4.558066666666667,
121,all,neutral_female,salesperson,0,0,salesperson,Sarah,critical,1,490,salesperson_neutral_female,11,3,21,Yes,,3,2,Female,92,0,0,0,0,100,100,100,100,5,0,0,0,english,3,1,Chrome,Mac,900,1440,4.558066666666667,
121,all,neutral_female,from,0,0,salesperson,Sarah,none,1,533,salesperson_neutral_female,11,4,21,Yes,,3,2,Female,92,0,0,0,0,100,100,100,100,5,0,0,0,english,3,1,Chrome,Mac,900,1440,4.558066666666667,
121,all,neutral_female,Delaware.,0,0,salesperson,Sarah,none,1,614,salesperson_neutral_female,11,5,21,Yes,,3,2,Female,92,0,0,0,0,100,100,100,100,5,0,0,0,english,3,1,Chrome,Mac,900,1440,4.558066666666667,
121,all,neutral_female,She,0,0,salesperson,Sarah,none,1,1252,salesperson_neutral_female,11,6,21,Yes,,3,2,Female,92,0,0,0,0,100,100,100,100,5,0,0,0,english,3,1,Chrome,Mac,900,1440,4.558066666666667,
121,all,neutral_female,likes,0,0,salesperson,Sarah,none,1,537,salesperson_neutral_female,11,7,21,Yes,,3,2,Female,92,0,0,0,0,100,100,100,100,5,0,0,0,english,3,1,Chrome,Mac,900,1440,4.558066666666667,
121,all,neutral_female,cooking.,0,0,salesperson,Sarah,none,1,527,salesperson_neutral_female,11,8,21,Yes,,3,2,Female,92,0,0,0,0,100,100,100,100,5,0,0,0,english,3,1,Chrome,Mac,900,1440,4.558066666666667,
121,all,congruent_female,Megan,0,0,hunter,Megan,none,1,560,hunter_congruent_female,12,0,21,Yes,,3,2,Female,92,0,0,0,0,100,100,100,100,5,0,0,0,english,3,1,Chrome,Mac,900,1440,4.558066666666667,
