workerid,proliferate.condition,condition,form,lexeme,name,region,response_correct,rt,trial_id,trial_no,word_idx,subject_information.age,subject_information.asses,subject_information.comments,subject_information.education,subject_information.enjoyment,subject_information.gender,subject_information.gender_q1,subject_information.gender_q10,subject_information.gender_q11,subject_information.gender_q12,subject_information.gender_q13,subject_information.gender_q2,subject_information.gender_q3,subject_information.gender_q4,subject_information.gender_q5,subject_information.gender_q6,subject_information.gender_q7,subject_information.gender_q8,subject_information.gender_q9,subject_information.language,subject_information.party_alignment,subject_information.price,system.Browser,system.OS,system.screenH,system.screenW,time_in_minutes,error
343,Conservative,neutral_female,Brittany,performer,Brittany,none,1,703,example,0,0,46,Yes,"Physiologically women are not as strong as men but there are also plenty of men that are below average and a woman could take them. That being said, some jobs require strength that woman are physically incapable of being. I am not a stay at home mom kinda gal, but things do work smoother if one parent is able to stay at home. And the majority of men are not up to the task                  to be an effective stay at home parent. And, I don't believe a 5 year old has any concept of its gender. ",3,2,Female,100,45,46,100,0,11,100,48,59,61,100,100,49,English,2,1,Chrome,Windows,1050,1680,9.41415,
343,Conservative,neutral_female,is,performer,Brittany,none,1,464,example,0,1,46,Yes,"Physiologically women are not as strong as men but there are also plenty of men that are below average and a woman could take them. That being said, some jobs require strength that woman are physically incapable of being. I am not a stay at home mom kinda gal, but things do work smoother if one parent is able to stay at home. And the majority of men are not up to the task                  to be an effective stay at home parent. And, I don't believe a 5 year old has any concept of its gender. ",3,2,Female,100,45,46,100,0,11,100,48,59,61,100,100,49,English,2,1,Chrome,Windows,1050,1680,9.41415,
343,Conservative,neutral_female,a,performer,Brittany,none,1,344,example,0,2,46,Yes,"Physiologically women are not as strong as men but there are also plenty of men that are below average and a woman could take them. That being said, some jobs require strength that woman are physically incapable of being. I am not a stay at home mom kinda gal, but things do work smoother if one parent is able to stay at home. And the majority of men are not up to the task                  to be an effective stay at home parent. And, I don't believe a 5 year old has any concept of its gender. ",3,2,Female,100,45,46,100,0,11,100,48,59,61,100,100,49,English,2,1,Chrome,Windows,1050,1680,9.41415,
343,Conservative,neutral_female,performer,performer,Brittany,critical,1,568,example,0,3,46,Yes,"Physiologically women are not as strong as men but there are also plenty of men that are below average and a woman could take them. That being said, some jobs require strength that woman are physically incapable of being. I am not a stay at home mom kinda gal, but things do work smoother if one parent is able to stay at home. And the majority of men are not up to the task                  to be an effective stay at home parent. And, I don't believe a 5 year old has any concept of its gender. ",3,2,Female,100,45,46,100,0,11,100,48,59,61,100,100,49,English,2,1,Chrome,Windows,1050,1680,9.41415,
343,Conservative,neutral_female,from,performer,Brittany,none,1,473,example,0,4,46,Yes,"Physiologically women are not as strong as men but there are also plenty of men that are below average and a woman could take them. That being said, some jobs require strength that woman are physically incapable of being. I am not a stay at home mom kinda gal, but things do work smoother if one parent is able to stay at home. And the majority of men are not up to the task                  to be an effective stay at home parent. And, I don't believe a 5 year old has any concept of its gender. ",3,2,Female,100,45,46,100,0,11,100,48,59,61,100,100,49,English,2,1,Chrome,Windows,1050,1680,9.41415,
343,Conservative,neutral_female,South Korea.,performer,Brittany,none,1,1079,example,0,5,46,Yes,"Physiologically women are not as strong as men but there are also plenty of men that are below average and a woman could take them. That being said, some jobs require strength that woman are physically incapable of being. I am not a stay at home mom kinda gal, but things do work smoother if one parent is able to stay at home. And the majority of men are not up to the task                  to be an effective stay at home parent. And, I don't believe a 5 year old has any concept of its gender. ",3,2,Female,100,45,46,100,0,11,100,48,59,61,100,100,49,English,2,1,Chrome,Windows,1050,1680,9.41415,
343,Conservative,neutral_female,She,performer,Brittany,none,1,616,example,0,6,46,Yes,"Physiologically women are not as strong as men but there are also plenty of men that are below average and a woman could take them. That being said, some jobs require strength that woman are physically incapable of being. I am not a stay at home mom kinda gal, but things do work smoother if one parent is able to stay at home. And the majority of men are not up to the task                  to be an effective stay at home parent. And, I don't believe a 5 year old has any concept of its gender. ",3,2,Female,100,45,46,100,0,11,100,48,59,61,100,100,49,English,2,1,Chrome,Windows,1050,1680,9.41415,
343,Conservative,neutral_female,likes,performer,Brittany,none,1,424,example,0,7,46,Yes,"Physiologically women are not as strong as men but there are also plenty of men that are below average and a woman could take them. That being said, some jobs require strength that woman are physically incapable of being. I am not a stay at home mom kinda gal, but things do work smoother if one parent is able to stay at home. And the majority of men are not up to the task                  to be an effective stay at home parent. And, I don't believe a 5 year old has any concept of its gender. ",3,2,Female,100,45,46,100,0,11,100,48,59,61,100,100,49,English,2,1,Chrome,Windows,1050,1680,9.41415,
343,Conservative,neutral_female,cycling.,performer,Brittany,none,1,5576,example,0,8,46,Yes,"Physiologically women are not as strong as men but there are also plenty of men that are below average and a woman could take them. That being said, some jobs require strength that woman are physically incapable of being. I am not a stay at home mom kinda gal, but things do work smoother if one parent is able to stay at home. And the majority of men are not up to the task                  to be an effective stay at home parent. And, I don't believe a 5 year old has any concept of its gender. ",3,2,Female,100,45,46,100,0,11,100,48,59,61,100,100,49,English,2,1,Chrome,Windows,1050,1680,9.41415,
343,Conservative,congruent_female,Elizabeth,police officer,Elizabeth,none,1,1055,police officer_congruent_female,1,0,46,Yes,"Physiologically women are not as strong as men but there are also plenty of men that are below average and a woman could take them. That being said, some jobs require strength that woman are physically incapable of being. I am not a stay at home mom kinda gal, but things do work smoother if one parent is able to stay at home. And the majority of men are not up to the task                  to be an effective stay at home parent. And, I don't believe a 5 year old has any concept of its gender. ",3,2,Female,100,45,46,100,0,11,100,48,59,61,100,100,49,English,2,1,Chrome,Windows,1050,1680,9.41415,
343,Conservative,congruent_female,is,police officer,Elizabeth,none,1,416,police officer_congruent_female,1,1,46,Yes,"Physiologically women are not as strong as men but there are also plenty of men that are below average and a woman could take them. That being said, some jobs require strength that woman are physically incapable of being. I am not a stay at home mom kinda gal, but things do work smoother if one parent is able to stay at home. And the majority of men are not up to the task                  to be an effective stay at home parent. And, I don't believe a 5 year old has any concept of its gender. ",3,2,Female,100,45,46,100,0,11,100,48,59,61,100,100,49,English,2,1,Chrome,Windows,1050,1680,9.41415,
343,Conservative,congruent_female,a,police officer,Elizabeth,none,1,305,police officer_congruent_female,1,2,46,Yes,"Physiologically women are not as strong as men but there are also plenty of men that are below average and a woman could take them. That being said, some jobs require strength that woman are physically incapable of being. I am not a stay at home mom kinda gal, but things do work smoother if one parent is able to stay at home. And the majority of men are not up to the task                  to be an effective stay at home parent. And, I don't believe a 5 year old has any concept of its gender. ",3,2,Female,100,45,46,100,0,11,100,48,59,61,100,100,49,English,2,1,Chrome,Windows,1050,1680,9.41415,
343,Conservative,congruent_female,policewoman,police officer,Elizabeth,critical,1,495,police officer_congruent_female,1,3,46,Yes,"Physiologically women are not as strong as men but there are also plenty of men that are below average and a woman could take them. That being said, some jobs require strength that woman are physically incapable of being. I am not a stay at home mom kinda gal, but things do work smoother if one parent is able to stay at home. And the majority of men are not up to the task                  to be an effective stay at home parent. And, I don't believe a 5 year old has any concept of its gender. ",3,2,Female,100,45,46,100,0,11,100,48,59,61,100,100,49,English,2,1,Chrome,Windows,1050,1680,9.41415,
343,Conservative,congruent_female,from,police officer,Elizabeth,none,1,800,police officer_congruent_female,1,4,46,Yes,"Physiologically women are not as strong as men but there are also plenty of men that are below average and a woman could take them. That being said, some jobs require strength that woman are physically incapable of being. I am not a stay at home mom kinda gal, but things do work smoother if one parent is able to stay at home. And the majority of men are not up to the task                  to be an effective stay at home parent. And, I don't believe a 5 year old has any concept of its gender. ",3,2,Female,100,45,46,100,0,11,100,48,59,61,100,100,49,English,2,1,Chrome,Windows,1050,1680,9.41415,
343,Conservative,congruent_female,Michigan.,police officer,Elizabeth,none,1,728,police officer_congruent_female,1,5,46,Yes,"Physiologically women are not as strong as men but there are also plenty of men that are below average and a woman could take them. That being said, some jobs require strength that woman are physically incapable of being. I am not a stay at home mom kinda gal, but things do work smoother if one parent is able to stay at home. And the majority of men are not up to the task                  to be an effective stay at home parent. And, I don't believe a 5 year old has any concept of its gender. ",3,2,Female,100,45,46,100,0,11,100,48,59,61,100,100,49,English,2,1,Chrome,Windows,1050,1680,9.41415,
343,Conservative,congruent_female,She,police officer,Elizabeth,none,1,464,police officer_congruent_female,1,6,46,Yes,"Physiologically women are not as strong as men but there are also plenty of men that are below average and a woman could take them. That being said, some jobs require strength that woman are physically incapable of being. I am not a stay at home mom kinda gal, but things do work smoother if one parent is able to stay at home. And the majority of men are not up to the task                  to be an effective stay at home parent. And, I don't believe a 5 year old has any concept of its gender. ",3,2,Female,100,45,46,100,0,11,100,48,59,61,100,100,49,English,2,1,Chrome,Windows,1050,1680,9.41415,
343,Conservative,congruent_female,likes,police officer,Elizabeth,none,1,432,police officer_congruent_female,1,7,46,Yes,"Physiologically women are not as strong as men but there are also plenty of men that are below average and a woman could take them. That being said, some jobs require strength that woman are physically incapable of being. I am not a stay at home mom kinda gal, but things do work smoother if one parent is able to stay at home. And the majority of men are not up to the task                  to be an effective stay at home parent. And, I don't believe a 5 year old has any concept of its gender. ",3,2,Female,100,45,46,100,0,11,100,48,59,61,100,100,49,English,2,1,Chrome,Windows,1050,1680,9.41415,
343,Conservative,congruent_female,dancing.,police officer,Elizabeth,none,1,1728,police officer_congruent_female,1,8,46,Yes,"Physiologically women are not as strong as men but there are also plenty of men that are below average and a woman could take them. That being said, some jobs require strength that woman are physically incapable of being. I am not a stay at home mom kinda gal, but things do work smoother if one parent is able to stay at home. And the majority of men are not up to the task                  to be an effective stay at home parent. And, I don't believe a 5 year old has any concept of its gender. ",3,2,Female,100,45,46,100,0,11,100,48,59,61,100,100,49,English,2,1,Chrome,Windows,1050,1680,9.41415,
343,Conservative,neutral_male,Jacob,crewmember,Jacob,none,1,632,crewmember_neutral_male,2,0,46,Yes,"Physiologically women are not as strong as men but there are also plenty of men that are below average and a woman could take them. That being said, some jobs require strength that woman are physically incapable of being. I am not a stay at home mom kinda gal, but things do work smoother if one parent is able to stay at home. And the majority of men are not up to the task                  to be an effective stay at home parent. And, I don't believe a 5 year old has any concept of its gender. ",3,2,Female,100,45,46,100,0,11,100,48,59,61,100,100,49,English,2,1,Chrome,Windows,1050,1680,9.41415,
343,Conservative,neutral_male,is,crewmember,Jacob,none,1,304,crewmember_neutral_male,2,1,46,Yes,"Physiologically women are not as strong as men but there are also plenty of men that are below average and a woman could take them. That being said, some jobs require strength that woman are physically incapable of being. I am not a stay at home mom kinda gal, but things do work smoother if one parent is able to stay at home. And the majority of men are not up to the task                  to be an effective stay at home parent. And, I don't believe a 5 year old has any concept of its gender. ",3,2,Female,100,45,46,100,0,11,100,48,59,61,100,100,49,English,2,1,Chrome,Windows,1050,1680,9.41415,
343,Conservative,neutral_male,a,crewmember,Jacob,none,1,344,crewmember_neutral_male,2,2,46,Yes,"Physiologically women are not as strong as men but there are also plenty of men that are below average and a woman could take them. That being said, some jobs require strength that woman are physically incapable of being. I am not a stay at home mom kinda gal, but things do work smoother if one parent is able to stay at home. And the majority of men are not up to the task                  to be an effective stay at home parent. And, I don't believe a 5 year old has any concept of its gender. ",3,2,Female,100,45,46,100,0,11,100,48,59,61,100,100,49,English,2,1,Chrome,Windows,1050,1680,9.41415,
343,Conservative,neutral_male,crewmember,crewmember,Jacob,critical,1,1304,crewmember_neutral_male,2,3,46,Yes,"Physiologically women are not as strong as men but there are also plenty of men that are below average and a woman could take them. That being said, some jobs require strength that woman are physically incapable of being. I am not a stay at home mom kinda gal, but things do work smoother if one parent is able to stay at home. And the majority of men are not up to the task                  to be an effective stay at home parent. And, I don't believe a 5 year old has any concept of its gender. ",3,2,Female,100,45,46,100,0,11,100,48,59,61,100,100,49,English,2,1,Chrome,Windows,1050,1680,9.41415,
343,Conservative,neutral_male,from,crewmember,Jacob,none,1,440,crewmember_neutral_male,2,4,46,Yes,"Physiologically women are not as strong as men but there are also plenty of men that are below average and a woman could take them. That being said, some jobs require strength that woman are physically incapable of being. I am not a stay at home mom kinda gal, but things do work smoother if one parent is able to stay at home. And the majority of men are not up to the task                  to be an effective stay at home parent. And, I don't believe a 5 year old has any concept of its gender. ",3,2,Female,100,45,46,100,0,11,100,48,59,61,100,100,49,English,2,1,Chrome,Windows,1050,1680,9.41415,
343,Conservative,neutral_male,Wisconsin.,crewmember,Jacob,none,1,1040,crewmember_neutral_male,2,5,46,Yes,"Physiologically women are not as strong as men but there are also plenty of men that are below average and a woman could take them. That being said, some jobs require strength that woman are physically incapable of being. I am not a stay at home mom kinda gal, but things do work smoother if one parent is able to stay at home. And the majority of men are not up to the task                  to be an effective stay at home parent. And, I don't believe a 5 year old has any concept of its gender. ",3,2,Female,100,45,46,100,0,11,100,48,59,61,100,100,49,English,2,1,Chrome,Windows,1050,1680,9.41415,
343,Conservative,neutral_male,He,crewmember,Jacob,none,1,504,crewmember_neutral_male,2,6,46,Yes,"Physiologically women are not as strong as men but there are also plenty of men that are below average and a woman could take them. That being said, some jobs require strength that woman are physically incapable of being. I am not a stay at home mom kinda gal, but things do work smoother if one parent is able to stay at home. And the majority of men are not up to the task                  to be an effective stay at home parent. And, I don't believe a 5 year old has any concept of its gender. ",3,2,Female,100,45,46,100,0,11,100,48,59,61,100,100,49,English,2,1,Chrome,Windows,1050,1680,9.41415,
343,Conservative,neutral_male,likes,crewmember,Jacob,none,1,368,crewmember_neutral_male,2,7,46,Yes,"Physiologically women are not as strong as men but there are also plenty of men that are below average and a woman could take them. That being said, some jobs require strength that woman are physically incapable of being. I am not a stay at home mom kinda gal, but things do work smoother if one parent is able to stay at home. And the majority of men are not up to the task                  to be an effective stay at home parent. And, I don't believe a 5 year old has any concept of its gender. ",3,2,Female,100,45,46,100,0,11,100,48,59,61,100,100,49,English,2,1,Chrome,Windows,1050,1680,9.41415,
343,Conservative,neutral_male,drawing.,crewmember,Jacob,none,1,568,crewmember_neutral_male,2,8,46,Yes,"Physiologically women are not as strong as men but there are also plenty of men that are below average and a woman could take them. That being said, some jobs require strength that woman are physically incapable of being. I am not a stay at home mom kinda gal, but things do work smoother if one parent is able to stay at home. And the majority of men are not up to the task                  to be an effective stay at home parent. And, I don't believe a 5 year old has any concept of its gender. ",3,2,Female,100,45,46,100,0,11,100,48,59,61,100,100,49,English,2,1,Chrome,Windows,1050,1680,9.41415,
343,Conservative,neutral_female,Megan,stunt double,Megan,none,1,1672,stunt double_neutral_female,3,0,46,Yes,"Physiologically women are not as strong as men but there are also plenty of men that are below average and a woman could take them. That being said, some jobs require strength that woman are physically incapable of being. I am not a stay at home mom kinda gal, but things do work smoother if one parent is able to stay at home. And the majority of men are not up to the task                  to be an effective stay at home parent. And, I don't believe a 5 year old has any concept of its gender. ",3,2,Female,100,45,46,100,0,11,100,48,59,61,100,100,49,English,2,1,Chrome,Windows,1050,1680,9.41415,
343,Conservative,neutral_female,is,stunt double,Megan,none,1,416,stunt double_neutral_female,3,1,46,Yes,"Physiologically women are not as strong as men but there are also plenty of men that are below average and a woman could take them. That being said, some jobs require strength that woman are physically incapable of being. I am not a stay at home mom kinda gal, but things do work smoother if one parent is able to stay at home. And the majority of men are not up to the task                  to be an effective stay at home parent. And, I don't believe a 5 year old has any concept of its gender. ",3,2,Female,100,45,46,100,0,11,100,48,59,61,100,100,49,English,2,1,Chrome,Windows,1050,1680,9.41415,
343,Conservative,neutral_female,a,stunt double,Megan,none,1,336,stunt double_neutral_female,3,2,46,Yes,"Physiologically women are not as strong as men but there are also plenty of men that are below average and a woman could take them. That being said, some jobs require strength that woman are physically incapable of being. I am not a stay at home mom kinda gal, but things do work smoother if one parent is able to stay at home. And the majority of men are not up to the task                  to be an effective stay at home parent. And, I don't believe a 5 year old has any concept of its gender. ",3,2,Female,100,45,46,100,0,11,100,48,59,61,100,100,49,English,2,1,Chrome,Windows,1050,1680,9.41415,
343,Conservative,neutral_female,stunt double,stunt double,Megan,critical,1,720,stunt double_neutral_female,3,3,46,Yes,"Physiologically women are not as strong as men but there are also plenty of men that are below average and a woman could take them. That being said, some jobs require strength that woman are physically incapable of being. I am not a stay at home mom kinda gal, but things do work smoother if one parent is able to stay at home. And the majority of men are not up to the task                  to be an effective stay at home parent. And, I don't believe a 5 year old has any concept of its gender. ",3,2,Female,100,45,46,100,0,11,100,48,59,61,100,100,49,English,2,1,Chrome,Windows,1050,1680,9.41415,
343,Conservative,neutral_female,from,stunt double,Megan,none,1,560,stunt double_neutral_female,3,4,46,Yes,"Physiologically women are not as strong as men but there are also plenty of men that are below average and a woman could take them. That being said, some jobs require strength that woman are physically incapable of being. I am not a stay at home mom kinda gal, but things do work smoother if one parent is able to stay at home. And the majority of men are not up to the task                  to be an effective stay at home parent. And, I don't believe a 5 year old has any concept of its gender. ",3,2,Female,100,45,46,100,0,11,100,48,59,61,100,100,49,English,2,1,Chrome,Windows,1050,1680,9.41415,
343,Conservative,neutral_female,West Virginia.,stunt double,Megan,none,1,1160,stunt double_neutral_female,3,5,46,Yes,"Physiologically women are not as strong as men but there are also plenty of men that are below average and a woman could take them. That being said, some jobs require strength that woman are physically incapable of being. I am not a stay at home mom kinda gal, but things do work smoother if one parent is able to stay at home. And the majority of men are not up to the task                  to be an effective stay at home parent. And, I don't believe a 5 year old has any concept of its gender. ",3,2,Female,100,45,46,100,0,11,100,48,59,61,100,100,49,English,2,1,Chrome,Windows,1050,1680,9.41415,
343,Conservative,neutral_female,She,stunt double,Megan,none,1,504,stunt double_neutral_female,3,6,46,Yes,"Physiologically women are not as strong as men but there are also plenty of men that are below average and a woman could take them. That being said, some jobs require strength that woman are physically incapable of being. I am not a stay at home mom kinda gal, but things do work smoother if one parent is able to stay at home. And the majority of men are not up to the task                  to be an effective stay at home parent. And, I don't believe a 5 year old has any concept of its gender. ",3,2,Female,100,45,46,100,0,11,100,48,59,61,100,100,49,English,2,1,Chrome,Windows,1050,1680,9.41415,
343,Conservative,neutral_female,likes,stunt double,Megan,none,1,424,stunt double_neutral_female,3,7,46,Yes,"Physiologically women are not as strong as men but there are also plenty of men that are below average and a woman could take them. That being said, some jobs require strength that woman are physically incapable of being. I am not a stay at home mom kinda gal, but things do work smoother if one parent is able to stay at home. And the majority of men are not up to the task                  to be an effective stay at home parent. And, I don't believe a 5 year old has any concept of its gender. ",3,2,Female,100,45,46,100,0,11,100,48,59,61,100,100,49,English,2,1,Chrome,Windows,1050,1680,9.41415,
343,Conservative,neutral_female,surfing.,stunt double,Megan,none,1,1920,stunt double_neutral_female,3,8,46,Yes,"Physiologically women are not as strong as men but there are also plenty of men that are below average and a woman could take them. That being said, some jobs require strength that woman are physically incapable of being. I am not a stay at home mom kinda gal, but things do work smoother if one parent is able to stay at home. And the majority of men are not up to the task                  to be an effective stay at home parent. And, I don't believe a 5 year old has any concept of its gender. ",3,2,Female,100,45,46,100,0,11,100,48,59,61,100,100,49,English,2,1,Chrome,Windows,1050,1680,9.41415,
343,Conservative,congruent_male,Nicholas,businessperson,Nicholas,none,1,952,businessperson_congruent_male,4,0,46,Yes,"Physiologically women are not as strong as men but there are also plenty of men that are below average and a woman could take them. That being said, some jobs require strength that woman are physically incapable of being. I am not a stay at home mom kinda gal, but things do work smoother if one parent is able to stay at home. And the majority of men are not up to the task                  to be an effective stay at home parent. And, I don't believe a 5 year old has any concept of its gender. ",3,2,Female,100,45,46,100,0,11,100,48,59,61,100,100,49,English,2,1,Chrome,Windows,1050,1680,9.41415,
343,Conservative,congruent_male,is,businessperson,Nicholas,none,1,352,businessperson_congruent_male,4,1,46,Yes,"Physiologically women are not as strong as men but there are also plenty of men that are below average and a woman could take them. That being said, some jobs require strength that woman are physically incapable of being. I am not a stay at home mom kinda gal, but things do work smoother if one parent is able to stay at home. And the majority of men are not up to the task                  to be an effective stay at home parent. And, I don't believe a 5 year old has any concept of its gender. ",3,2,Female,100,45,46,100,0,11,100,48,59,61,100,100,49,English,2,1,Chrome,Windows,1050,1680,9.41415,
343,Conservative,congruent_male,a,businessperson,Nicholas,none,1,320,businessperson_congruent_male,4,2,46,Yes,"Physiologically women are not as strong as men but there are also plenty of men that are below average and a woman could take them. That being said, some jobs require strength that woman are physically incapable of being. I am not a stay at home mom kinda gal, but things do work smoother if one parent is able to stay at home. And the majority of men are not up to the task                  to be an effective stay at home parent. And, I don't believe a 5 year old has any concept of its gender. ",3,2,Female,100,45,46,100,0,11,100,48,59,61,100,100,49,English,2,1,Chrome,Windows,1050,1680,9.41415,
343,Conservative,congruent_male,businessman,businessperson,Nicholas,critical,1,880,businessperson_congruent_male,4,3,46,Yes,"Physiologically women are not as strong as men but there are also plenty of men that are below average and a woman could take them. That being said, some jobs require strength that woman are physically incapable of being. I am not a stay at home mom kinda gal, but things do work smoother if one parent is able to stay at home. And the majority of men are not up to the task                  to be an effective stay at home parent. And, I don't believe a 5 year old has any concept of its gender. ",3,2,Female,100,45,46,100,0,11,100,48,59,61,100,100,49,English,2,1,Chrome,Windows,1050,1680,9.41415,
343,Conservative,congruent_male,from,businessperson,Nicholas,none,1,472,businessperson_congruent_male,4,4,46,Yes,"Physiologically women are not as strong as men but there are also plenty of men that are below average and a woman could take them. That being said, some jobs require strength that woman are physically incapable of being. I am not a stay at home mom kinda gal, but things do work smoother if one parent is able to stay at home. And the majority of men are not up to the task                  to be an effective stay at home parent. And, I don't believe a 5 year old has any concept of its gender. ",3,2,Female,100,45,46,100,0,11,100,48,59,61,100,100,49,English,2,1,Chrome,Windows,1050,1680,9.41415,
343,Conservative,congruent_male,Rhode Island.,businessperson,Nicholas,none,1,840,businessperson_congruent_male,4,5,46,Yes,"Physiologically women are not as strong as men but there are also plenty of men that are below average and a woman could take them. That being said, some jobs require strength that woman are physically incapable of being. I am not a stay at home mom kinda gal, but things do work smoother if one parent is able to stay at home. And the majority of men are not up to the task                  to be an effective stay at home parent. And, I don't believe a 5 year old has any concept of its gender. ",3,2,Female,100,45,46,100,0,11,100,48,59,61,100,100,49,English,2,1,Chrome,Windows,1050,1680,9.41415,
343,Conservative,congruent_male,He,businessperson,Nicholas,none,1,560,businessperson_congruent_male,4,6,46,Yes,"Physiologically women are not as strong as men but there are also plenty of men that are below average and a woman could take them. That being said, some jobs require strength that woman are physically incapable of being. I am not a stay at home mom kinda gal, but things do work smoother if one parent is able to stay at home. And the majority of men are not up to the task                  to be an effective stay at home parent. And, I don't believe a 5 year old has any concept of its gender. ",3,2,Female,100,45,46,100,0,11,100,48,59,61,100,100,49,English,2,1,Chrome,Windows,1050,1680,9.41415,
343,Conservative,congruent_male,likes,businessperson,Nicholas,none,1,488,businessperson_congruent_male,4,7,46,Yes,"Physiologically women are not as strong as men but there are also plenty of men that are below average and a woman could take them. That being said, some jobs require strength that woman are physically incapable of being. I am not a stay at home mom kinda gal, but things do work smoother if one parent is able to stay at home. And the majority of men are not up to the task                  to be an effective stay at home parent. And, I don't believe a 5 year old has any concept of its gender. ",3,2,Female,100,45,46,100,0,11,100,48,59,61,100,100,49,English,2,1,Chrome,Windows,1050,1680,9.41415,
343,Conservative,congruent_male,reading.,businessperson,Nicholas,none,1,1256,businessperson_congruent_male,4,8,46,Yes,"Physiologically women are not as strong as men but there are also plenty of men that are below average and a woman could take them. That being said, some jobs require strength that woman are physically incapable of being. I am not a stay at home mom kinda gal, but things do work smoother if one parent is able to stay at home. And the majority of men are not up to the task                  to be an effective stay at home parent. And, I don't believe a 5 year old has any concept of its gender. ",3,2,Female,100,45,46,100,0,11,100,48,59,61,100,100,49,English,2,1,Chrome,Windows,1050,1680,9.41415,
343,Conservative,congruent_female,Sarah,flight attendant,Sarah,none,1,568,flight attendant_congruent_female,5,0,46,Yes,"Physiologically women are not as strong as men but there are also plenty of men that are below average and a woman could take them. That being said, some jobs require strength that woman are physically incapable of being. I am not a stay at home mom kinda gal, but things do work smoother if one parent is able to stay at home. And the majority of men are not up to the task                  to be an effective stay at home parent. And, I don't believe a 5 year old has any concept of its gender. ",3,2,Female,100,45,46,100,0,11,100,48,59,61,100,100,49,English,2,1,Chrome,Windows,1050,1680,9.41415,
343,Conservative,congruent_female,is,flight attendant,Sarah,none,1,288,flight attendant_congruent_female,5,1,46,Yes,"Physiologically women are not as strong as men but there are also plenty of men that are below average and a woman could take them. That being said, some jobs require strength that woman are physically incapable of being. I am not a stay at home mom kinda gal, but things do work smoother if one parent is able to stay at home. And the majority of men are not up to the task                  to be an effective stay at home parent. And, I don't believe a 5 year old has any concept of its gender. ",3,2,Female,100,45,46,100,0,11,100,48,59,61,100,100,49,English,2,1,Chrome,Windows,1050,1680,9.41415,
343,Conservative,congruent_female,a,flight attendant,Sarah,none,1,352,flight attendant_congruent_female,5,2,46,Yes,"Physiologically women are not as strong as men but there are also plenty of men that are below average and a woman could take them. That being said, some jobs require strength that woman are physically incapable of being. I am not a stay at home mom kinda gal, but things do work smoother if one parent is able to stay at home. And the majority of men are not up to the task                  to be an effective stay at home parent. And, I don't believe a 5 year old has any concept of its gender. ",3,2,Female,100,45,46,100,0,11,100,48,59,61,100,100,49,English,2,1,Chrome,Windows,1050,1680,9.41415,
343,Conservative,congruent_female,stewardess,flight attendant,Sarah,critical,1,752,flight attendant_congruent_female,5,3,46,Yes,"Physiologically women are not as strong as men but there are also plenty of men that are below average and a woman could take them. That being said, some jobs require strength that woman are physically incapable of being. I am not a stay at home mom kinda gal, but things do work smoother if one parent is able to stay at home. And the majority of men are not up to the task                  to be an effective stay at home parent. And, I don't believe a 5 year old has any concept of its gender. ",3,2,Female,100,45,46,100,0,11,100,48,59,61,100,100,49,English,2,1,Chrome,Windows,1050,1680,9.41415,
343,Conservative,congruent_female,from,flight attendant,Sarah,none,1,384,flight attendant_congruent_female,5,4,46,Yes,"Physiologically women are not as strong as men but there are also plenty of men that are below average and a woman could take them. That being said, some jobs require strength that woman are physically incapable of being. I am not a stay at home mom kinda gal, but things do work smoother if one parent is able to stay at home. And the majority of men are not up to the task                  to be an effective stay at home parent. And, I don't believe a 5 year old has any concept of its gender. ",3,2,Female,100,45,46,100,0,11,100,48,59,61,100,100,49,English,2,1,Chrome,Windows,1050,1680,9.41415,
343,Conservative,congruent_female,Oklahoma.,flight attendant,Sarah,none,1,832,flight attendant_congruent_female,5,5,46,Yes,"Physiologically women are not as strong as men but there are also plenty of men that are below average and a woman could take them. That being said, some jobs require strength that woman are physically incapable of being. I am not a stay at home mom kinda gal, but things do work smoother if one parent is able to stay at home. And the majority of men are not up to the task                  to be an effective stay at home parent. And, I don't believe a 5 year old has any concept of its gender. ",3,2,Female,100,45,46,100,0,11,100,48,59,61,100,100,49,English,2,1,Chrome,Windows,1050,1680,9.41415,
343,Conservative,congruent_female,She,flight attendant,Sarah,none,1,392,flight attendant_congruent_female,5,6,46,Yes,"Physiologically women are not as strong as men but there are also plenty of men that are below average and a woman could take them. That being said, some jobs require strength that woman are physically incapable of being. I am not a stay at home mom kinda gal, but things do work smoother if one parent is able to stay at home. And the majority of men are not up to the task                  to be an effective stay at home parent. And, I don't believe a 5 year old has any concept of its gender. ",3,2,Female,100,45,46,100,0,11,100,48,59,61,100,100,49,English,2,1,Chrome,Windows,1050,1680,9.41415,
343,Conservative,congruent_female,likes,flight attendant,Sarah,none,1,328,flight attendant_congruent_female,5,7,46,Yes,"Physiologically women are not as strong as men but there are also plenty of men that are below average and a woman could take them. That being said, some jobs require strength that woman are physically incapable of being. I am not a stay at home mom kinda gal, but things do work smoother if one parent is able to stay at home. And the majority of men are not up to the task                  to be an effective stay at home parent. And, I don't believe a 5 year old has any concept of its gender. ",3,2,Female,100,45,46,100,0,11,100,48,59,61,100,100,49,English,2,1,Chrome,Windows,1050,1680,9.41415,
343,Conservative,congruent_female,writing.,flight attendant,Sarah,none,1,1200,flight attendant_congruent_female,5,8,46,Yes,"Physiologically women are not as strong as men but there are also plenty of men that are below average and a woman could take them. That being said, some jobs require strength that woman are physically incapable of being. I am not a stay at home mom kinda gal, but things do work smoother if one parent is able to stay at home. And the majority of men are not up to the task                  to be an effective stay at home parent. And, I don't believe a 5 year old has any concept of its gender. ",3,2,Female,100,45,46,100,0,11,100,48,59,61,100,100,49,English,2,1,Chrome,Windows,1050,1680,9.41415,
343,Conservative,neutral_male,William,villain,William,none,1,448,villain_neutral_male,6,0,46,Yes,"Physiologically women are not as strong as men but there are also plenty of men that are below average and a woman could take them. That being said, some jobs require strength that woman are physically incapable of being. I am not a stay at home mom kinda gal, but things do work smoother if one parent is able to stay at home. And the majority of men are not up to the task                  to be an effective stay at home parent. And, I don't believe a 5 year old has any concept of its gender. ",3,2,Female,100,45,46,100,0,11,100,48,59,61,100,100,49,English,2,1,Chrome,Windows,1050,1680,9.41415,
343,Conservative,neutral_male,is,villain,William,none,1,440,villain_neutral_male,6,1,46,Yes,"Physiologically women are not as strong as men but there are also plenty of men that are below average and a woman could take them. That being said, some jobs require strength that woman are physically incapable of being. I am not a stay at home mom kinda gal, but things do work smoother if one parent is able to stay at home. And the majority of men are not up to the task                  to be an effective stay at home parent. And, I don't believe a 5 year old has any concept of its gender. ",3,2,Female,100,45,46,100,0,11,100,48,59,61,100,100,49,English,2,1,Chrome,Windows,1050,1680,9.41415,
343,Conservative,neutral_male,a,villain,William,none,1,328,villain_neutral_male,6,2,46,Yes,"Physiologically women are not as strong as men but there are also plenty of men that are below average and a woman could take them. That being said, some jobs require strength that woman are physically incapable of being. I am not a stay at home mom kinda gal, but things do work smoother if one parent is able to stay at home. And the majority of men are not up to the task                  to be an effective stay at home parent. And, I don't believe a 5 year old has any concept of its gender. ",3,2,Female,100,45,46,100,0,11,100,48,59,61,100,100,49,English,2,1,Chrome,Windows,1050,1680,9.41415,
343,Conservative,neutral_male,villain,villain,William,critical,1,440,villain_neutral_male,6,3,46,Yes,"Physiologically women are not as strong as men but there are also plenty of men that are below average and a woman could take them. That being said, some jobs require strength that woman are physically incapable of being. I am not a stay at home mom kinda gal, but things do work smoother if one parent is able to stay at home. And the majority of men are not up to the task                  to be an effective stay at home parent. And, I don't believe a 5 year old has any concept of its gender. ",3,2,Female,100,45,46,100,0,11,100,48,59,61,100,100,49,English,2,1,Chrome,Windows,1050,1680,9.41415,
343,Conservative,neutral_male,from,villain,William,none,1,424,villain_neutral_male,6,4,46,Yes,"Physiologically women are not as strong as men but there are also plenty of men that are below average and a woman could take them. That being said, some jobs require strength that woman are physically incapable of being. I am not a stay at home mom kinda gal, but things do work smoother if one parent is able to stay at home. And the majority of men are not up to the task                  to be an effective stay at home parent. And, I don't believe a 5 year old has any concept of its gender. ",3,2,Female,100,45,46,100,0,11,100,48,59,61,100,100,49,English,2,1,Chrome,Windows,1050,1680,9.41415,
343,Conservative,neutral_male,Wyoming.,villain,William,none,1,1008,villain_neutral_male,6,5,46,Yes,"Physiologically women are not as strong as men but there are also plenty of men that are below average and a woman could take them. That being said, some jobs require strength that woman are physically incapable of being. I am not a stay at home mom kinda gal, but things do work smoother if one parent is able to stay at home. And the majority of men are not up to the task                  to be an effective stay at home parent. And, I don't believe a 5 year old has any concept of its gender. ",3,2,Female,100,45,46,100,0,11,100,48,59,61,100,100,49,English,2,1,Chrome,Windows,1050,1680,9.41415,
343,Conservative,neutral_male,He,villain,William,none,1,480,villain_neutral_male,6,6,46,Yes,"Physiologically women are not as strong as men but there are also plenty of men that are below average and a woman could take them. That being said, some jobs require strength that woman are physically incapable of being. I am not a stay at home mom kinda gal, but things do work smoother if one parent is able to stay at home. And the majority of men are not up to the task                  to be an effective stay at home parent. And, I don't believe a 5 year old has any concept of its gender. ",3,2,Female,100,45,46,100,0,11,100,48,59,61,100,100,49,English,2,1,Chrome,Windows,1050,1680,9.41415,
343,Conservative,neutral_male,likes,villain,William,none,1,384,villain_neutral_male,6,7,46,Yes,"Physiologically women are not as strong as men but there are also plenty of men that are below average and a woman could take them. That being said, some jobs require strength that woman are physically incapable of being. I am not a stay at home mom kinda gal, but things do work smoother if one parent is able to stay at home. And the majority of men are not up to the task                  to be an effective stay at home parent. And, I don't believe a 5 year old has any concept of its gender. ",3,2,Female,100,45,46,100,0,11,100,48,59,61,100,100,49,English,2,1,Chrome,Windows,1050,1680,9.41415,
343,Conservative,neutral_male,singing.,villain,William,none,1,1136,villain_neutral_male,6,8,46,Yes,"Physiologically women are not as strong as men but there are also plenty of men that are below average and a woman could take them. That being said, some jobs require strength that woman are physically incapable of being. I am not a stay at home mom kinda gal, but things do work smoother if one parent is able to stay at home. And the majority of men are not up to the task                  to be an effective stay at home parent. And, I don't believe a 5 year old has any concept of its gender. ",3,2,Female,100,45,46,100,0,11,100,48,59,61,100,100,49,English,2,1,Chrome,Windows,1050,1680,9.41415,
343,Conservative,neutral_male,Joseph,actor,Joseph,none,1,400,actor_neutral_male,7,0,46,Yes,"Physiologically women are not as strong as men but there are also plenty of men that are below average and a woman could take them. That being said, some jobs require strength that woman are physically incapable of being. I am not a stay at home mom kinda gal, but things do work smoother if one parent is able to stay at home. And the majority of men are not up to the task                  to be an effective stay at home parent. And, I don't believe a 5 year old has any concept of its gender. ",3,2,Female,100,45,46,100,0,11,100,48,59,61,100,100,49,English,2,1,Chrome,Windows,1050,1680,9.41415,
343,Conservative,neutral_male,is,actor,Joseph,none,1,208,actor_neutral_male,7,1,46,Yes,"Physiologically women are not as strong as men but there are also plenty of men that are below average and a woman could take them. That being said, some jobs require strength that woman are physically incapable of being. I am not a stay at home mom kinda gal, but things do work smoother if one parent is able to stay at home. And the majority of men are not up to the task                  to be an effective stay at home parent. And, I don't believe a 5 year old has any concept of its gender. ",3,2,Female,100,45,46,100,0,11,100,48,59,61,100,100,49,English,2,1,Chrome,Windows,1050,1680,9.41415,
343,Conservative,neutral_male,an,actor,Joseph,none,1,192,actor_neutral_male,7,2,46,Yes,"Physiologically women are not as strong as men but there are also plenty of men that are below average and a woman could take them. That being said, some jobs require strength that woman are physically incapable of being. I am not a stay at home mom kinda gal, but things do work smoother if one parent is able to stay at home. And the majority of men are not up to the task                  to be an effective stay at home parent. And, I don't believe a 5 year old has any concept of its gender. ",3,2,Female,100,45,46,100,0,11,100,48,59,61,100,100,49,English,2,1,Chrome,Windows,1050,1680,9.41415,
343,Conservative,neutral_male,actor,actor,Joseph,critical,1,600,actor_neutral_male,7,3,46,Yes,"Physiologically women are not as strong as men but there are also plenty of men that are below average and a woman could take them. That being said, some jobs require strength that woman are physically incapable of being. I am not a stay at home mom kinda gal, but things do work smoother if one parent is able to stay at home. And the majority of men are not up to the task                  to be an effective stay at home parent. And, I don't believe a 5 year old has any concept of its gender. ",3,2,Female,100,45,46,100,0,11,100,48,59,61,100,100,49,English,2,1,Chrome,Windows,1050,1680,9.41415,
343,Conservative,neutral_male,from,actor,Joseph,none,1,360,actor_neutral_male,7,4,46,Yes,"Physiologically women are not as strong as men but there are also plenty of men that are below average and a woman could take them. That being said, some jobs require strength that woman are physically incapable of being. I am not a stay at home mom kinda gal, but things do work smoother if one parent is able to stay at home. And the majority of men are not up to the task                  to be an effective stay at home parent. And, I don't believe a 5 year old has any concept of its gender. ",3,2,Female,100,45,46,100,0,11,100,48,59,61,100,100,49,English,2,1,Chrome,Windows,1050,1680,9.41415,
343,Conservative,neutral_male,Illinois.,actor,Joseph,none,1,736,actor_neutral_male,7,5,46,Yes,"Physiologically women are not as strong as men but there are also plenty of men that are below average and a woman could take them. That being said, some jobs require strength that woman are physically incapable of being. I am not a stay at home mom kinda gal, but things do work smoother if one parent is able to stay at home. And the majority of men are not up to the task                  to be an effective stay at home parent. And, I don't believe a 5 year old has any concept of its gender. ",3,2,Female,100,45,46,100,0,11,100,48,59,61,100,100,49,English,2,1,Chrome,Windows,1050,1680,9.41415,
343,Conservative,neutral_male,He,actor,Joseph,none,1,536,actor_neutral_male,7,6,46,Yes,"Physiologically women are not as strong as men but there are also plenty of men that are below average and a woman could take them. That being said, some jobs require strength that woman are physically incapable of being. I am not a stay at home mom kinda gal, but things do work smoother if one parent is able to stay at home. And the majority of men are not up to the task                  to be an effective stay at home parent. And, I don't believe a 5 year old has any concept of its gender. ",3,2,Female,100,45,46,100,0,11,100,48,59,61,100,100,49,English,2,1,Chrome,Windows,1050,1680,9.41415,
343,Conservative,neutral_male,likes,actor,Joseph,none,1,360,actor_neutral_male,7,7,46,Yes,"Physiologically women are not as strong as men but there are also plenty of men that are below average and a woman could take them. That being said, some jobs require strength that woman are physically incapable of being. I am not a stay at home mom kinda gal, but things do work smoother if one parent is able to stay at home. And the majority of men are not up to the task                  to be an effective stay at home parent. And, I don't believe a 5 year old has any concept of its gender. ",3,2,Female,100,45,46,100,0,11,100,48,59,61,100,100,49,English,2,1,Chrome,Windows,1050,1680,9.41415,
343,Conservative,neutral_male,cooking.,actor,Joseph,none,1,1008,actor_neutral_male,7,8,46,Yes,"Physiologically women are not as strong as men but there are also plenty of men that are below average and a woman could take them. That being said, some jobs require strength that woman are physically incapable of being. I am not a stay at home mom kinda gal, but things do work smoother if one parent is able to stay at home. And the majority of men are not up to the task                  to be an effective stay at home parent. And, I don't believe a 5 year old has any concept of its gender. ",3,2,Female,100,45,46,100,0,11,100,48,59,61,100,100,49,English,2,1,Chrome,Windows,1050,1680,9.41415,
343,Conservative,neutral_female,Jessica,heir,Jessica,none,1,352,heir_neutral_female,8,0,46,Yes,"Physiologically women are not as strong as men but there are also plenty of men that are below average and a woman could take them. That being said, some jobs require strength that woman are physically incapable of being. I am not a stay at home mom kinda gal, but things do work smoother if one parent is able to stay at home. And the majority of men are not up to the task                  to be an effective stay at home parent. And, I don't believe a 5 year old has any concept of its gender. ",3,2,Female,100,45,46,100,0,11,100,48,59,61,100,100,49,English,2,1,Chrome,Windows,1050,1680,9.41415,
343,Conservative,neutral_female,is,heir,Jessica,none,1,200,heir_neutral_female,8,1,46,Yes,"Physiologically women are not as strong as men but there are also plenty of men that are below average and a woman could take them. That being said, some jobs require strength that woman are physically incapable of being. I am not a stay at home mom kinda gal, but things do work smoother if one parent is able to stay at home. And the majority of men are not up to the task                  to be an effective stay at home parent. And, I don't believe a 5 year old has any concept of its gender. ",3,2,Female,100,45,46,100,0,11,100,48,59,61,100,100,49,English,2,1,Chrome,Windows,1050,1680,9.41415,
343,Conservative,neutral_female,an,heir,Jessica,none,1,216,heir_neutral_female,8,2,46,Yes,"Physiologically women are not as strong as men but there are also plenty of men that are below average and a woman could take them. That being said, some jobs require strength that woman are physically incapable of being. I am not a stay at home mom kinda gal, but things do work smoother if one parent is able to stay at home. And the majority of men are not up to the task                  to be an effective stay at home parent. And, I don't believe a 5 year old has any concept of its gender. ",3,2,Female,100,45,46,100,0,11,100,48,59,61,100,100,49,English,2,1,Chrome,Windows,1050,1680,9.41415,
343,Conservative,neutral_female,heir,heir,Jessica,critical,1,496,heir_neutral_female,8,3,46,Yes,"Physiologically women are not as strong as men but there are also plenty of men that are below average and a woman could take them. That being said, some jobs require strength that woman are physically incapable of being. I am not a stay at home mom kinda gal, but things do work smoother if one parent is able to stay at home. And the majority of men are not up to the task                  to be an effective stay at home parent. And, I don't believe a 5 year old has any concept of its gender. ",3,2,Female,100,45,46,100,0,11,100,48,59,61,100,100,49,English,2,1,Chrome,Windows,1050,1680,9.41415,
343,Conservative,neutral_female,from,heir,Jessica,none,1,512,heir_neutral_female,8,4,46,Yes,"Physiologically women are not as strong as men but there are also plenty of men that are below average and a woman could take them. That being said, some jobs require strength that woman are physically incapable of being. I am not a stay at home mom kinda gal, but things do work smoother if one parent is able to stay at home. And the majority of men are not up to the task                  to be an effective stay at home parent. And, I don't believe a 5 year old has any concept of its gender. ",3,2,Female,100,45,46,100,0,11,100,48,59,61,100,100,49,English,2,1,Chrome,Windows,1050,1680,9.41415,
343,Conservative,neutral_female,South Dakota.,heir,Jessica,none,1,752,heir_neutral_female,8,5,46,Yes,"Physiologically women are not as strong as men but there are also plenty of men that are below average and a woman could take them. That being said, some jobs require strength that woman are physically incapable of being. I am not a stay at home mom kinda gal, but things do work smoother if one parent is able to stay at home. And the majority of men are not up to the task                  to be an effective stay at home parent. And, I don't believe a 5 year old has any concept of its gender. ",3,2,Female,100,45,46,100,0,11,100,48,59,61,100,100,49,English,2,1,Chrome,Windows,1050,1680,9.41415,
343,Conservative,neutral_female,She,heir,Jessica,none,1,440,heir_neutral_female,8,6,46,Yes,"Physiologically women are not as strong as men but there are also plenty of men that are below average and a woman could take them. That being said, some jobs require strength that woman are physically incapable of being. I am not a stay at home mom kinda gal, but things do work smoother if one parent is able to stay at home. And the majority of men are not up to the task                  to be an effective stay at home parent. And, I don't believe a 5 year old has any concept of its gender. ",3,2,Female,100,45,46,100,0,11,100,48,59,61,100,100,49,English,2,1,Chrome,Windows,1050,1680,9.41415,
343,Conservative,neutral_female,likes,heir,Jessica,none,1,360,heir_neutral_female,8,7,46,Yes,"Physiologically women are not as strong as men but there are also plenty of men that are below average and a woman could take them. That being said, some jobs require strength that woman are physically incapable of being. I am not a stay at home mom kinda gal, but things do work smoother if one parent is able to stay at home. And the majority of men are not up to the task                  to be an effective stay at home parent. And, I don't believe a 5 year old has any concept of its gender. ",3,2,Female,100,45,46,100,0,11,100,48,59,61,100,100,49,English,2,1,Chrome,Windows,1050,1680,9.41415,
343,Conservative,neutral_female,studying.,heir,Jessica,none,1,1256,heir_neutral_female,8,8,46,Yes,"Physiologically women are not as strong as men but there are also plenty of men that are below average and a woman could take them. That being said, some jobs require strength that woman are physically incapable of being. I am not a stay at home mom kinda gal, but things do work smoother if one parent is able to stay at home. And the majority of men are not up to the task                  to be an effective stay at home parent. And, I don't believe a 5 year old has any concept of its gender. ",3,2,Female,100,45,46,100,0,11,100,48,59,61,100,100,49,English,2,1,Chrome,Windows,1050,1680,9.41415,
343,Conservative,neutral_female,Emily,hunter,Emily,none,1,392,hunter_neutral_female,9,0,46,Yes,"Physiologically women are not as strong as men but there are also plenty of men that are below average and a woman could take them. That being said, some jobs require strength that woman are physically incapable of being. I am not a stay at home mom kinda gal, but things do work smoother if one parent is able to stay at home. And the majority of men are not up to the task                  to be an effective stay at home parent. And, I don't believe a 5 year old has any concept of its gender. ",3,2,Female,100,45,46,100,0,11,100,48,59,61,100,100,49,English,2,1,Chrome,Windows,1050,1680,9.41415,
343,Conservative,neutral_female,is,hunter,Emily,none,1,224,hunter_neutral_female,9,1,46,Yes,"Physiologically women are not as strong as men but there are also plenty of men that are below average and a woman could take them. That being said, some jobs require strength that woman are physically incapable of being. I am not a stay at home mom kinda gal, but things do work smoother if one parent is able to stay at home. And the majority of men are not up to the task                  to be an effective stay at home parent. And, I don't believe a 5 year old has any concept of its gender. ",3,2,Female,100,45,46,100,0,11,100,48,59,61,100,100,49,English,2,1,Chrome,Windows,1050,1680,9.41415,
343,Conservative,neutral_female,a,hunter,Emily,none,1,312,hunter_neutral_female,9,2,46,Yes,"Physiologically women are not as strong as men but there are also plenty of men that are below average and a woman could take them. That being said, some jobs require strength that woman are physically incapable of being. I am not a stay at home mom kinda gal, but things do work smoother if one parent is able to stay at home. And the majority of men are not up to the task                  to be an effective stay at home parent. And, I don't believe a 5 year old has any concept of its gender. ",3,2,Female,100,45,46,100,0,11,100,48,59,61,100,100,49,English,2,1,Chrome,Windows,1050,1680,9.41415,
343,Conservative,neutral_female,hunter,hunter,Emily,critical,1,368,hunter_neutral_female,9,3,46,Yes,"Physiologically women are not as strong as men but there are also plenty of men that are below average and a woman could take them. That being said, some jobs require strength that woman are physically incapable of being. I am not a stay at home mom kinda gal, but things do work smoother if one parent is able to stay at home. And the majority of men are not up to the task                  to be an effective stay at home parent. And, I don't believe a 5 year old has any concept of its gender. ",3,2,Female,100,45,46,100,0,11,100,48,59,61,100,100,49,English,2,1,Chrome,Windows,1050,1680,9.41415,
343,Conservative,neutral_female,from,hunter,Emily,none,1,360,hunter_neutral_female,9,4,46,Yes,"Physiologically women are not as strong as men but there are also plenty of men that are below average and a woman could take them. That being said, some jobs require strength that woman are physically incapable of being. I am not a stay at home mom kinda gal, but things do work smoother if one parent is able to stay at home. And the majority of men are not up to the task                  to be an effective stay at home parent. And, I don't believe a 5 year old has any concept of its gender. ",3,2,Female,100,45,46,100,0,11,100,48,59,61,100,100,49,English,2,1,Chrome,Windows,1050,1680,9.41415,
343,Conservative,neutral_female,Washington.,hunter,Emily,none,1,1376,hunter_neutral_female,9,5,46,Yes,"Physiologically women are not as strong as men but there are also plenty of men that are below average and a woman could take them. That being said, some jobs require strength that woman are physically incapable of being. I am not a stay at home mom kinda gal, but things do work smoother if one parent is able to stay at home. And the majority of men are not up to the task                  to be an effective stay at home parent. And, I don't believe a 5 year old has any concept of its gender. ",3,2,Female,100,45,46,100,0,11,100,48,59,61,100,100,49,English,2,1,Chrome,Windows,1050,1680,9.41415,
343,Conservative,neutral_female,She,hunter,Emily,none,1,368,hunter_neutral_female,9,6,46,Yes,"Physiologically women are not as strong as men but there are also plenty of men that are below average and a woman could take them. That being said, some jobs require strength that woman are physically incapable of being. I am not a stay at home mom kinda gal, but things do work smoother if one parent is able to stay at home. And the majority of men are not up to the task                  to be an effective stay at home parent. And, I don't believe a 5 year old has any concept of its gender. ",3,2,Female,100,45,46,100,0,11,100,48,59,61,100,100,49,English,2,1,Chrome,Windows,1050,1680,9.41415,
343,Conservative,neutral_female,likes,hunter,Emily,none,1,392,hunter_neutral_female,9,7,46,Yes,"Physiologically women are not as strong as men but there are also plenty of men that are below average and a woman could take them. That being said, some jobs require strength that woman are physically incapable of being. I am not a stay at home mom kinda gal, but things do work smoother if one parent is able to stay at home. And the majority of men are not up to the task                  to be an effective stay at home parent. And, I don't believe a 5 year old has any concept of its gender. ",3,2,Female,100,45,46,100,0,11,100,48,59,61,100,100,49,English,2,1,Chrome,Windows,1050,1680,9.41415,
343,Conservative,neutral_female,studying.,hunter,Emily,none,1,1120,hunter_neutral_female,9,8,46,Yes,"Physiologically women are not as strong as men but there are also plenty of men that are below average and a woman could take them. That being said, some jobs require strength that woman are physically incapable of being. I am not a stay at home mom kinda gal, but things do work smoother if one parent is able to stay at home. And the majority of men are not up to the task                  to be an effective stay at home parent. And, I don't believe a 5 year old has any concept of its gender. ",3,2,Female,100,45,46,100,0,11,100,48,59,61,100,100,49,English,2,1,Chrome,Windows,1050,1680,9.41415,
343,Conservative,congruent_male,David,camera operator,David,none,1,304,camera operator_congruent_male,10,0,46,Yes,"Physiologically women are not as strong as men but there are also plenty of men that are below average and a woman could take them. That being said, some jobs require strength that woman are physically incapable of being. I am not a stay at home mom kinda gal, but things do work smoother if one parent is able to stay at home. And the majority of men are not up to the task                  to be an effective stay at home parent. And, I don't believe a 5 year old has any concept of its gender. ",3,2,Female,100,45,46,100,0,11,100,48,59,61,100,100,49,English,2,1,Chrome,Windows,1050,1680,9.41415,
343,Conservative,congruent_male,is,camera operator,David,none,1,288,camera operator_congruent_male,10,1,46,Yes,"Physiologically women are not as strong as men but there are also plenty of men that are below average and a woman could take them. That being said, some jobs require strength that woman are physically incapable of being. I am not a stay at home mom kinda gal, but things do work smoother if one parent is able to stay at home. And the majority of men are not up to the task                  to be an effective stay at home parent. And, I don't believe a 5 year old has any concept of its gender. ",3,2,Female,100,45,46,100,0,11,100,48,59,61,100,100,49,English,2,1,Chrome,Windows,1050,1680,9.41415,
343,Conservative,congruent_male,a,camera operator,David,none,1,296,camera operator_congruent_male,10,2,46,Yes,"Physiologically women are not as strong as men but there are also plenty of men that are below average and a woman could take them. That being said, some jobs require strength that woman are physically incapable of being. I am not a stay at home mom kinda gal, but things do work smoother if one parent is able to stay at home. And the majority of men are not up to the task                  to be an effective stay at home parent. And, I don't believe a 5 year old has any concept of its gender. ",3,2,Female,100,45,46,100,0,11,100,48,59,61,100,100,49,English,2,1,Chrome,Windows,1050,1680,9.41415,
343,Conservative,congruent_male,cameraman,camera operator,David,critical,1,888,camera operator_congruent_male,10,3,46,Yes,"Physiologically women are not as strong as men but there are also plenty of men that are below average and a woman could take them. That being said, some jobs require strength that woman are physically incapable of being. I am not a stay at home mom kinda gal, but things do work smoother if one parent is able to stay at home. And the majority of men are not up to the task                  to be an effective stay at home parent. And, I don't believe a 5 year old has any concept of its gender. ",3,2,Female,100,45,46,100,0,11,100,48,59,61,100,100,49,English,2,1,Chrome,Windows,1050,1680,9.41415,
343,Conservative,congruent_male,from,camera operator,David,none,1,296,camera operator_congruent_male,10,4,46,Yes,"Physiologically women are not as strong as men but there are also plenty of men that are below average and a woman could take them. That being said, some jobs require strength that woman are physically incapable of being. I am not a stay at home mom kinda gal, but things do work smoother if one parent is able to stay at home. And the majority of men are not up to the task                  to be an effective stay at home parent. And, I don't believe a 5 year old has any concept of its gender. ",3,2,Female,100,45,46,100,0,11,100,48,59,61,100,100,49,English,2,1,Chrome,Windows,1050,1680,9.41415,
343,Conservative,congruent_male,Texas.,camera operator,David,none,1,368,camera operator_congruent_male,10,5,46,Yes,"Physiologically women are not as strong as men but there are also plenty of men that are below average and a woman could take them. That being said, some jobs require strength that woman are physically incapable of being. I am not a stay at home mom kinda gal, but things do work smoother if one parent is able to stay at home. And the majority of men are not up to the task                  to be an effective stay at home parent. And, I don't believe a 5 year old has any concept of its gender. ",3,2,Female,100,45,46,100,0,11,100,48,59,61,100,100,49,English,2,1,Chrome,Windows,1050,1680,9.41415,
343,Conservative,congruent_male,He,camera operator,David,none,1,376,camera operator_congruent_male,10,6,46,Yes,"Physiologically women are not as strong as men but there are also plenty of men that are below average and a woman could take them. That being said, some jobs require strength that woman are physically incapable of being. I am not a stay at home mom kinda gal, but things do work smoother if one parent is able to stay at home. And the majority of men are not up to the task                  to be an effective stay at home parent. And, I don't believe a 5 year old has any concept of its gender. ",3,2,Female,100,45,46,100,0,11,100,48,59,61,100,100,49,English,2,1,Chrome,Windows,1050,1680,9.41415,
343,Conservative,congruent_male,likes,camera operator,David,none,1,320,camera operator_congruent_male,10,7,46,Yes,"Physiologically women are not as strong as men but there are also plenty of men that are below average and a woman could take them. That being said, some jobs require strength that woman are physically incapable of being. I am not a stay at home mom kinda gal, but things do work smoother if one parent is able to stay at home. And the majority of men are not up to the task                  to be an effective stay at home parent. And, I don't believe a 5 year old has any concept of its gender. ",3,2,Female,100,45,46,100,0,11,100,48,59,61,100,100,49,English,2,1,Chrome,Windows,1050,1680,9.41415,
343,Conservative,congruent_male,camping.,camera operator,David,none,1,1072,camera operator_congruent_male,10,8,46,Yes,"Physiologically women are not as strong as men but there are also plenty of men that are below average and a woman could take them. That being said, some jobs require strength that woman are physically incapable of being. I am not a stay at home mom kinda gal, but things do work smoother if one parent is able to stay at home. And the majority of men are not up to the task                  to be an effective stay at home parent. And, I don't believe a 5 year old has any concept of its gender. ",3,2,Female,100,45,46,100,0,11,100,48,59,61,100,100,49,English,2,1,Chrome,Windows,1050,1680,9.41415,
343,Conservative,congruent_female,Alyssa,meteorologist,Alyssa,none,1,288,meteorologist_congruent_female,11,0,46,Yes,"Physiologically women are not as strong as men but there are also plenty of men that are below average and a woman could take them. That being said, some jobs require strength that woman are physically incapable of being. I am not a stay at home mom kinda gal, but things do work smoother if one parent is able to stay at home. And the majority of men are not up to the task                  to be an effective stay at home parent. And, I don't believe a 5 year old has any concept of its gender. ",3,2,Female,100,45,46,100,0,11,100,48,59,61,100,100,49,English,2,1,Chrome,Windows,1050,1680,9.41415,
343,Conservative,congruent_female,is,meteorologist,Alyssa,none,1,304,meteorologist_congruent_female,11,1,46,Yes,"Physiologically women are not as strong as men but there are also plenty of men that are below average and a woman could take them. That being said, some jobs require strength that woman are physically incapable of being. I am not a stay at home mom kinda gal, but things do work smoother if one parent is able to stay at home. And the majority of men are not up to the task                  to be an effective stay at home parent. And, I don't believe a 5 year old has any concept of its gender. ",3,2,Female,100,45,46,100,0,11,100,48,59,61,100,100,49,English,2,1,Chrome,Windows,1050,1680,9.41415,
343,Conservative,congruent_female,a,meteorologist,Alyssa,none,1,224,meteorologist_congruent_female,11,2,46,Yes,"Physiologically women are not as strong as men but there are also plenty of men that are below average and a woman could take them. That being said, some jobs require strength that woman are physically incapable of being. I am not a stay at home mom kinda gal, but things do work smoother if one parent is able to stay at home. And the majority of men are not up to the task                  to be an effective stay at home parent. And, I don't believe a 5 year old has any concept of its gender. ",3,2,Female,100,45,46,100,0,11,100,48,59,61,100,100,49,English,2,1,Chrome,Windows,1050,1680,9.41415,
343,Conservative,congruent_female,weatherwoman,meteorologist,Alyssa,critical,1,992,meteorologist_congruent_female,11,3,46,Yes,"Physiologically women are not as strong as men but there are also plenty of men that are below average and a woman could take them. That being said, some jobs require strength that woman are physically incapable of being. I am not a stay at home mom kinda gal, but things do work smoother if one parent is able to stay at home. And the majority of men are not up to the task                  to be an effective stay at home parent. And, I don't believe a 5 year old has any concept of its gender. ",3,2,Female,100,45,46,100,0,11,100,48,59,61,100,100,49,English,2,1,Chrome,Windows,1050,1680,9.41415,
343,Conservative,congruent_female,from,meteorologist,Alyssa,none,1,288,meteorologist_congruent_female,11,4,46,Yes,"Physiologically women are not as strong as men but there are also plenty of men that are below average and a woman could take them. That being said, some jobs require strength that woman are physically incapable of being. I am not a stay at home mom kinda gal, but things do work smoother if one parent is able to stay at home. And the majority of men are not up to the task                  to be an effective stay at home parent. And, I don't believe a 5 year old has any concept of its gender. ",3,2,Female,100,45,46,100,0,11,100,48,59,61,100,100,49,English,2,1,Chrome,Windows,1050,1680,9.41415,
343,Conservative,congruent_female,Ohio.,meteorologist,Alyssa,none,1,232,meteorologist_congruent_female,11,5,46,Yes,"Physiologically women are not as strong as men but there are also plenty of men that are below average and a woman could take them. That being said, some jobs require strength that woman are physically incapable of being. I am not a stay at home mom kinda gal, but things do work smoother if one parent is able to stay at home. And the majority of men are not up to the task                  to be an effective stay at home parent. And, I don't believe a 5 year old has any concept of its gender. ",3,2,Female,100,45,46,100,0,11,100,48,59,61,100,100,49,English,2,1,Chrome,Windows,1050,1680,9.41415,
343,Conservative,congruent_female,She,meteorologist,Alyssa,none,1,600,meteorologist_congruent_female,11,6,46,Yes,"Physiologically women are not as strong as men but there are also plenty of men that are below average and a woman could take them. That being said, some jobs require strength that woman are physically incapable of being. I am not a stay at home mom kinda gal, but things do work smoother if one parent is able to stay at home. And the majority of men are not up to the task                  to be an effective stay at home parent. And, I don't believe a 5 year old has any concept of its gender. ",3,2,Female,100,45,46,100,0,11,100,48,59,61,100,100,49,English,2,1,Chrome,Windows,1050,1680,9.41415,
343,Conservative,congruent_female,likes,meteorologist,Alyssa,none,1,376,meteorologist_congruent_female,11,7,46,Yes,"Physiologically women are not as strong as men but there are also plenty of men that are below average and a woman could take them. That being said, some jobs require strength that woman are physically incapable of being. I am not a stay at home mom kinda gal, but things do work smoother if one parent is able to stay at home. And the majority of men are not up to the task                  to be an effective stay at home parent. And, I don't believe a 5 year old has any concept of its gender. ",3,2,Female,100,45,46,100,0,11,100,48,59,61,100,100,49,English,2,1,Chrome,Windows,1050,1680,9.41415,
343,Conservative,congruent_female,cooking.,meteorologist,Alyssa,none,1,1304,meteorologist_congruent_female,11,8,46,Yes,"Physiologically women are not as strong as men but there are also plenty of men that are below average and a woman could take them. That being said, some jobs require strength that woman are physically incapable of being. I am not a stay at home mom kinda gal, but things do work smoother if one parent is able to stay at home. And the majority of men are not up to the task                  to be an effective stay at home parent. And, I don't believe a 5 year old has any concept of its gender. ",3,2,Female,100,45,46,100,0,11,100,48,59,61,100,100,49,English,2,1,Chrome,Windows,1050,1680,9.41415,
343,Conservative,congruent_male,Andrew,host,Andrew,none,1,344,host_congruent_male,12,0,46,Yes,"Physiologically women are not as strong as men but there are also plenty of men that are below average and a woman could take them. That being said, some jobs require strength that woman are physically incapable of being. I am not a stay at home mom kinda gal, but things do work smoother if one parent is able to stay at home. And the majority of men are not up to the task                  to be an effective stay at home parent. And, I don't believe a 5 year old has any concept of its gender. ",3,2,Female,100,45,46,100,0,11,100,48,59,61,100,100,49,English,2,1,Chrome,Windows,1050,1680,9.41415,
343,Conservative,congruent_male,is,host,Andrew,none,1,248,host_congruent_male,12,1,46,Yes,"Physiologically women are not as strong as men but there are also plenty of men that are below average and a woman could take them. That being said, some jobs require strength that woman are physically incapable of being. I am not a stay at home mom kinda gal, but things do work smoother if one parent is able to stay at home. And the majority of men are not up to the task                  to be an effective stay at home parent. And, I don't believe a 5 year old has any concept of its gender. ",3,2,Female,100,45,46,100,0,11,100,48,59,61,100,100,49,English,2,1,Chrome,Windows,1050,1680,9.41415,
343,Conservative,congruent_male,a,host,Andrew,none,1,192,host_congruent_male,12,2,46,Yes,"Physiologically women are not as strong as men but there are also plenty of men that are below average and a woman could take them. That being said, some jobs require strength that woman are physically incapable of being. I am not a stay at home mom kinda gal, but things do work smoother if one parent is able to stay at home. And the majority of men are not up to the task                  to be an effective stay at home parent. And, I don't believe a 5 year old has any concept of its gender. ",3,2,Female,100,45,46,100,0,11,100,48,59,61,100,100,49,English,2,1,Chrome,Windows,1050,1680,9.41415,
343,Conservative,congruent_male,host,host,Andrew,critical,1,448,host_congruent_male,12,3,46,Yes,"Physiologically women are not as strong as men but there are also plenty of men that are below average and a woman could take them. That being said, some jobs require strength that woman are physically incapable of being. I am not a stay at home mom kinda gal, but things do work smoother if one parent is able to stay at home. And the majority of men are not up to the task                  to be an effective stay at home parent. And, I don't believe a 5 year old has any concept of its gender. ",3,2,Female,100,45,46,100,0,11,100,48,59,61,100,100,49,English,2,1,Chrome,Windows,1050,1680,9.41415,
343,Conservative,congruent_male,from,host,Andrew,none,1,336,host_congruent_male,12,4,46,Yes,"Physiologically women are not as strong as men but there are also plenty of men that are below average and a woman could take them. That being said, some jobs require strength that woman are physically incapable of being. I am not a stay at home mom kinda gal, but things do work smoother if one parent is able to stay at home. And the majority of men are not up to the task                  to be an effective stay at home parent. And, I don't believe a 5 year old has any concept of its gender. ",3,2,Female,100,45,46,100,0,11,100,48,59,61,100,100,49,English,2,1,Chrome,Windows,1050,1680,9.41415,
343,Conservative,congruent_male,Iowa.,host,Andrew,none,1,192,host_congruent_male,12,5,46,Yes,"Physiologically women are not as strong as men but there are also plenty of men that are below average and a woman could take them. That being said, some jobs require strength that woman are physically incapable of being. I am not a stay at home mom kinda gal, but things do work smoother if one parent is able to stay at home. And the majority of men are not up to the task                  to be an effective stay at home parent. And, I don't believe a 5 year old has any concept of its gender. ",3,2,Female,100,45,46,100,0,11,100,48,59,61,100,100,49,English,2,1,Chrome,Windows,1050,1680,9.41415,
343,Conservative,congruent_male,He,host,Andrew,none,1,448,host_congruent_male,12,6,46,Yes,"Physiologically women are not as strong as men but there are also plenty of men that are below average and a woman could take them. That being said, some jobs require strength that woman are physically incapable of being. I am not a stay at home mom kinda gal, but things do work smoother if one parent is able to stay at home. And the majority of men are not up to the task                  to be an effective stay at home parent. And, I don't believe a 5 year old has any concept of its gender. ",3,2,Female,100,45,46,100,0,11,100,48,59,61,100,100,49,English,2,1,Chrome,Windows,1050,1680,9.41415,
343,Conservative,congruent_male,likes,host,Andrew,none,1,312,host_congruent_male,12,7,46,Yes,"Physiologically women are not as strong as men but there are also plenty of men that are below average and a woman could take them. That being said, some jobs require strength that woman are physically incapable of being. I am not a stay at home mom kinda gal, but things do work smoother if one parent is able to stay at home. And the majority of men are not up to the task                  to be an effective stay at home parent. And, I don't believe a 5 year old has any concept of its gender. ",3,2,Female,100,45,46,100,0,11,100,48,59,61,100,100,49,English,2,1,Chrome,Windows,1050,1680,9.41415,
343,Conservative,congruent_male,drawing.,host,Andrew,none,1,1064,host_congruent_male,12,8,46,Yes,"Physiologically women are not as strong as men but there are also plenty of men that are below average and a woman could take them. That being said, some jobs require strength that woman are physically incapable of being. I am not a stay at home mom kinda gal, but things do work smoother if one parent is able to stay at home. And the majority of men are not up to the task                  to be an effective stay at home parent. And, I don't believe a 5 year old has any concept of its gender. ",3,2,Female,100,45,46,100,0,11,100,48,59,61,100,100,49,English,2,1,Chrome,Windows,1050,1680,9.41415,
343,Conservative,congruent_female,Hannah,firefighter,Hannah,none,1,184,firefighter_congruent_female,13,0,46,Yes,"Physiologically women are not as strong as men but there are also plenty of men that are below average and a woman could take them. That being said, some jobs require strength that woman are physically incapable of being. I am not a stay at home mom kinda gal, but things do work smoother if one parent is able to stay at home. And the majority of men are not up to the task                  to be an effective stay at home parent. And, I don't believe a 5 year old has any concept of its gender. ",3,2,Female,100,45,46,100,0,11,100,48,59,61,100,100,49,English,2,1,Chrome,Windows,1050,1680,9.41415,
343,Conservative,congruent_female,is,firefighter,Hannah,none,1,176,firefighter_congruent_female,13,1,46,Yes,"Physiologically women are not as strong as men but there are also plenty of men that are below average and a woman could take them. That being said, some jobs require strength that woman are physically incapable of being. I am not a stay at home mom kinda gal, but things do work smoother if one parent is able to stay at home. And the majority of men are not up to the task                  to be an effective stay at home parent. And, I don't believe a 5 year old has any concept of its gender. ",3,2,Female,100,45,46,100,0,11,100,48,59,61,100,100,49,English,2,1,Chrome,Windows,1050,1680,9.41415,
343,Conservative,congruent_female,a,firefighter,Hannah,none,1,296,firefighter_congruent_female,13,2,46,Yes,"Physiologically women are not as strong as men but there are also plenty of men that are below average and a woman could take them. That being said, some jobs require strength that woman are physically incapable of being. I am not a stay at home mom kinda gal, but things do work smoother if one parent is able to stay at home. And the majority of men are not up to the task                  to be an effective stay at home parent. And, I don't believe a 5 year old has any concept of its gender. ",3,2,Female,100,45,46,100,0,11,100,48,59,61,100,100,49,English,2,1,Chrome,Windows,1050,1680,9.41415,
343,Conservative,congruent_female,firewoman,firefighter,Hannah,critical,1,536,firefighter_congruent_female,13,3,46,Yes,"Physiologically women are not as strong as men but there are also plenty of men that are below average and a woman could take them. That being said, some jobs require strength that woman are physically incapable of being. I am not a stay at home mom kinda gal, but things do work smoother if one parent is able to stay at home. And the majority of men are not up to the task                  to be an effective stay at home parent. And, I don't believe a 5 year old has any concept of its gender. ",3,2,Female,100,45,46,100,0,11,100,48,59,61,100,100,49,English,2,1,Chrome,Windows,1050,1680,9.41415,
343,Conservative,congruent_female,from,firefighter,Hannah,none,1,272,firefighter_congruent_female,13,4,46,Yes,"Physiologically women are not as strong as men but there are also plenty of men that are below average and a woman could take them. That being said, some jobs require strength that woman are physically incapable of being. I am not a stay at home mom kinda gal, but things do work smoother if one parent is able to stay at home. And the majority of men are not up to the task                  to be an effective stay at home parent. And, I don't believe a 5 year old has any concept of its gender. ",3,2,Female,100,45,46,100,0,11,100,48,59,61,100,100,49,English,2,1,Chrome,Windows,1050,1680,9.41415,
343,Conservative,congruent_female,Indiana.,firefighter,Hannah,none,1,232,firefighter_congruent_female,13,5,46,Yes,"Physiologically women are not as strong as men but there are also plenty of men that are below average and a woman could take them. That being said, some jobs require strength that woman are physically incapable of being. I am not a stay at home mom kinda gal, but things do work smoother if one parent is able to stay at home. And the majority of men are not up to the task                  to be an effective stay at home parent. And, I don't believe a 5 year old has any concept of its gender. ",3,2,Female,100,45,46,100,0,11,100,48,59,61,100,100,49,English,2,1,Chrome,Windows,1050,1680,9.41415,
343,Conservative,congruent_female,She,firefighter,Hannah,none,1,1072,firefighter_congruent_female,13,6,46,Yes,"Physiologically women are not as strong as men but there are also plenty of men that are below average and a woman could take them. That being said, some jobs require strength that woman are physically incapable of being. I am not a stay at home mom kinda gal, but things do work smoother if one parent is able to stay at home. And the majority of men are not up to the task                  to be an effective stay at home parent. And, I don't believe a 5 year old has any concept of its gender. ",3,2,Female,100,45,46,100,0,11,100,48,59,61,100,100,49,English,2,1,Chrome,Windows,1050,1680,9.41415,
343,Conservative,congruent_female,likes,firefighter,Hannah,none,1,328,firefighter_congruent_female,13,7,46,Yes,"Physiologically women are not as strong as men but there are also plenty of men that are below average and a woman could take them. That being said, some jobs require strength that woman are physically incapable of being. I am not a stay at home mom kinda gal, but things do work smoother if one parent is able to stay at home. And the majority of men are not up to the task                  to be an effective stay at home parent. And, I don't believe a 5 year old has any concept of its gender. ",3,2,Female,100,45,46,100,0,11,100,48,59,61,100,100,49,English,2,1,Chrome,Windows,1050,1680,9.41415,
343,Conservative,congruent_female,walking.,firefighter,Hannah,none,1,864,firefighter_congruent_female,13,8,46,Yes,"Physiologically women are not as strong as men but there are also plenty of men that are below average and a woman could take them. That being said, some jobs require strength that woman are physically incapable of being. I am not a stay at home mom kinda gal, but things do work smoother if one parent is able to stay at home. And the majority of men are not up to the task                  to be an effective stay at home parent. And, I don't believe a 5 year old has any concept of its gender. ",3,2,Female,100,45,46,100,0,11,100,48,59,61,100,100,49,English,2,1,Chrome,Windows,1050,1680,9.41415,
343,Conservative,neutral_male,John,congressperson,John,none,0,264,congressperson_neutral_male,14,0,46,Yes,"Physiologically women are not as strong as men but there are also plenty of men that are below average and a woman could take them. That being said, some jobs require strength that woman are physically incapable of being. I am not a stay at home mom kinda gal, but things do work smoother if one parent is able to stay at home. And the majority of men are not up to the task                  to be an effective stay at home parent. And, I don't believe a 5 year old has any concept of its gender. ",3,2,Female,100,45,46,100,0,11,100,48,59,61,100,100,49,English,2,1,Chrome,Windows,1050,1680,9.41415,
343,Conservative,neutral_male,is,congressperson,John,none,0,280,congressperson_neutral_male,14,1,46,Yes,"Physiologically women are not as strong as men but there are also plenty of men that are below average and a woman could take them. That being said, some jobs require strength that woman are physically incapable of being. I am not a stay at home mom kinda gal, but things do work smoother if one parent is able to stay at home. And the majority of men are not up to the task                  to be an effective stay at home parent. And, I don't believe a 5 year old has any concept of its gender. ",3,2,Female,100,45,46,100,0,11,100,48,59,61,100,100,49,English,2,1,Chrome,Windows,1050,1680,9.41415,
343,Conservative,neutral_male,a,congressperson,John,none,0,232,congressperson_neutral_male,14,2,46,Yes,"Physiologically women are not as strong as men but there are also plenty of men that are below average and a woman could take them. That being said, some jobs require strength that woman are physically incapable of being. I am not a stay at home mom kinda gal, but things do work smoother if one parent is able to stay at home. And the majority of men are not up to the task                  to be an effective stay at home parent. And, I don't believe a 5 year old has any concept of its gender. ",3,2,Female,100,45,46,100,0,11,100,48,59,61,100,100,49,English,2,1,Chrome,Windows,1050,1680,9.41415,
343,Conservative,neutral_male,congressperson,congressperson,John,critical,0,856,congressperson_neutral_male,14,3,46,Yes,"Physiologically women are not as strong as men but there are also plenty of men that are below average and a woman could take them. That being said, some jobs require strength that woman are physically incapable of being. I am not a stay at home mom kinda gal, but things do work smoother if one parent is able to stay at home. And the majority of men are not up to the task                  to be an effective stay at home parent. And, I don't believe a 5 year old has any concept of its gender. ",3,2,Female,100,45,46,100,0,11,100,48,59,61,100,100,49,English,2,1,Chrome,Windows,1050,1680,9.41415,
343,Conservative,neutral_male,from,congressperson,John,none,0,320,congressperson_neutral_male,14,4,46,Yes,"Physiologically women are not as strong as men but there are also plenty of men that are below average and a woman could take them. That being said, some jobs require strength that woman are physically incapable of being. I am not a stay at home mom kinda gal, but things do work smoother if one parent is able to stay at home. And the majority of men are not up to the task                  to be an effective stay at home parent. And, I don't believe a 5 year old has any concept of its gender. ",3,2,Female,100,45,46,100,0,11,100,48,59,61,100,100,49,English,2,1,Chrome,Windows,1050,1680,9.41415,
343,Conservative,neutral_male,Minnesota.,congressperson,John,none,0,288,congressperson_neutral_male,14,5,46,Yes,"Physiologically women are not as strong as men but there are also plenty of men that are below average and a woman could take them. That being said, some jobs require strength that woman are physically incapable of being. I am not a stay at home mom kinda gal, but things do work smoother if one parent is able to stay at home. And the majority of men are not up to the task                  to be an effective stay at home parent. And, I don't believe a 5 year old has any concept of its gender. ",3,2,Female,100,45,46,100,0,11,100,48,59,61,100,100,49,English,2,1,Chrome,Windows,1050,1680,9.41415,
343,Conservative,neutral_male,He,congressperson,John,none,0,552,congressperson_neutral_male,14,6,46,Yes,"Physiologically women are not as strong as men but there are also plenty of men that are below average and a woman could take them. That being said, some jobs require strength that woman are physically incapable of being. I am not a stay at home mom kinda gal, but things do work smoother if one parent is able to stay at home. And the majority of men are not up to the task                  to be an effective stay at home parent. And, I don't believe a 5 year old has any concept of its gender. ",3,2,Female,100,45,46,100,0,11,100,48,59,61,100,100,49,English,2,1,Chrome,Windows,1050,1680,9.41415,
343,Conservative,neutral_male,likes,congressperson,John,none,0,672,congressperson_neutral_male,14,7,46,Yes,"Physiologically women are not as strong as men but there are also plenty of men that are below average and a woman could take them. That being said, some jobs require strength that woman are physically incapable of being. I am not a stay at home mom kinda gal, but things do work smoother if one parent is able to stay at home. And the majority of men are not up to the task                  to be an effective stay at home parent. And, I don't believe a 5 year old has any concept of its gender. ",3,2,Female,100,45,46,100,0,11,100,48,59,61,100,100,49,English,2,1,Chrome,Windows,1050,1680,9.41415,
343,Conservative,neutral_male,cycling.,congressperson,John,none,0,840,congressperson_neutral_male,14,8,46,Yes,"Physiologically women are not as strong as men but there are also plenty of men that are below average and a woman could take them. That being said, some jobs require strength that woman are physically incapable of being. I am not a stay at home mom kinda gal, but things do work smoother if one parent is able to stay at home. And the majority of men are not up to the task                  to be an effective stay at home parent. And, I don't believe a 5 year old has any concept of its gender. ",3,2,Female,100,45,46,100,0,11,100,48,59,61,100,100,49,English,2,1,Chrome,Windows,1050,1680,9.41415,
343,Conservative,congruent_female,Lauren,anchor,Lauren,none,1,584,anchor_congruent_female,15,0,46,Yes,"Physiologically women are not as strong as men but there are also plenty of men that are below average and a woman could take them. That being said, some jobs require strength that woman are physically incapable of being. I am not a stay at home mom kinda gal, but things do work smoother if one parent is able to stay at home. And the majority of men are not up to the task                  to be an effective stay at home parent. And, I don't believe a 5 year old has any concept of its gender. ",3,2,Female,100,45,46,100,0,11,100,48,59,61,100,100,49,English,2,1,Chrome,Windows,1050,1680,9.41415,
343,Conservative,congruent_female,is,anchor,Lauren,none,1,159,anchor_congruent_female,15,1,46,Yes,"Physiologically women are not as strong as men but there are also plenty of men that are below average and a woman could take them. That being said, some jobs require strength that woman are physically incapable of being. I am not a stay at home mom kinda gal, but things do work smoother if one parent is able to stay at home. And the majority of men are not up to the task                  to be an effective stay at home parent. And, I don't believe a 5 year old has any concept of its gender. ",3,2,Female,100,45,46,100,0,11,100,48,59,61,100,100,49,English,2,1,Chrome,Windows,1050,1680,9.41415,
343,Conservative,congruent_female,an,anchor,Lauren,none,1,344,anchor_congruent_female,15,2,46,Yes,"Physiologically women are not as strong as men but there are also plenty of men that are below average and a woman could take them. That being said, some jobs require strength that woman are physically incapable of being. I am not a stay at home mom kinda gal, but things do work smoother if one parent is able to stay at home. And the majority of men are not up to the task                  to be an effective stay at home parent. And, I don't believe a 5 year old has any concept of its gender. ",3,2,Female,100,45,46,100,0,11,100,48,59,61,100,100,49,English,2,1,Chrome,Windows,1050,1680,9.41415,
343,Conservative,congruent_female,anchorwoman,anchor,Lauren,critical,1,1041,anchor_congruent_female,15,3,46,Yes,"Physiologically women are not as strong as men but there are also plenty of men that are below average and a woman could take them. That being said, some jobs require strength that woman are physically incapable of being. I am not a stay at home mom kinda gal, but things do work smoother if one parent is able to stay at home. And the majority of men are not up to the task                  to be an effective stay at home parent. And, I don't believe a 5 year old has any concept of its gender. ",3,2,Female,100,45,46,100,0,11,100,48,59,61,100,100,49,English,2,1,Chrome,Windows,1050,1680,9.41415,
343,Conservative,congruent_female,from,anchor,Lauren,none,1,255,anchor_congruent_female,15,4,46,Yes,"Physiologically women are not as strong as men but there are also plenty of men that are below average and a woman could take them. That being said, some jobs require strength that woman are physically incapable of being. I am not a stay at home mom kinda gal, but things do work smoother if one parent is able to stay at home. And the majority of men are not up to the task                  to be an effective stay at home parent. And, I don't believe a 5 year old has any concept of its gender. ",3,2,Female,100,45,46,100,0,11,100,48,59,61,100,100,49,English,2,1,Chrome,Windows,1050,1680,9.41415,
